"text","rt","key_press","block_duration","timing_post_trial","trial_id","trial_type","trial_index","time_elapsed","internal_node_id","exp_id","view_history","exp_stage","stimulus","possible_responses","stim_duration","correct_response","condition","trial_num","SS_stimulus","SS_delay","SS_trial_type","SS_duration","responses","credit_var"
"<div class = centerbox><p class = center-block-text>Welcome to the experiment. This experiment will take about 30 minutes. Press <strong>enter</strong> to begin.</p></div>","15095","13","15095","0","instruction","poldrack-text","0","15096","0.0-0.0-0.0","stop_signal","","","","","","","","","","","","","",""
"","20996","","","","instruction","poldrack-instructions","1","36093","0.0-0.0-1.0","stop_signal","[{""page_index"":0,""viewing_time"":10028},{""page_index"":1,""viewing_time"":10968}]","","","","","","","","","","","","",""
"<div class = centerbox><p class = block-text>We will now start with a practice session. In this practice  concentrate on responding quickly and accurately to each shape. Press <strong>enter</strong> to continue.</p></div>","4677","13","4677","1000","feedback","poldrack-text","2","41782","0.0-1.0-0.0","stop_signal","","practice","","","","","","","","","","","",""
"","-1","-1","500","0","fixation","poldrack-single-stim","3","43310","0.0-1.0-1.0","stop_signal","","practice","<div class = shapebox><div class = fixation>+</div></div>","none","500","","","","","","","","",""
"","583","90","1850","0","stim","poldrack-single-stim","4","45169","0.0-1.0-2.0","stop_signal","","NoSS_practice","<div class = shapebox><img class = stim src = /static/experiments/stop_signal/images/hourglass.png></img></div>","77,90","850","77","NoSS_practice","0","","","","","",""
"","-1","-1","500","0","fixation","poldrack-single-stim","5","45679","0.0-1.0-3.0","stop_signal","","practice","<div class = shapebox><div class = fixation>+</div></div>","none","500","","","","","","","","",""
"","647","77","1850","0","stim","poldrack-single-stim","6","47538","0.0-1.0-4.0","stop_signal","","NoSS_practice","<div class = shapebox><img class = stim src = /static/experiments/stop_signal/images/hourglass.png></img></div>","77,90","850","77","NoSS_practice","1","","","","","",""
"","-1","-1","500","0","fixation","poldrack-single-stim","7","48050","0.0-1.0-5.0","stop_signal","","practice","<div class = shapebox><div class = fixation>+</div></div>","none","500","","","","","","","","",""
"","708","90","1850","0","stim","poldrack-single-stim","8","49902","0.0-1.0-6.0","stop_signal","","NoSS_practice","<div class = shapebox><img class = stim src = /static/experiments/stop_signal/images/tear.png></img></div>","77,90","850","90","NoSS_practice","2","","","","","",""
"","-1","-1","500","0","fixation","poldrack-single-stim","9","50415","0.0-1.0-7.0","stop_signal","","practice","<div class = shapebox><div class = fixation>+</div></div>","none","500","","","","","","","","",""
"","430","90","1850","0","stim","poldrack-single-stim","10","52273","0.0-1.0-8.0","stop_signal","","NoSS_practice","<div class = shapebox><img class = stim src = /static/experiments/stop_signal/images/tear.png></img></div>","77,90","850","90","NoSS_practice","3","","","","","",""
"","-1","-1","500","0","fixation","poldrack-single-stim","11","52787","0.0-1.0-9.0","stop_signal","","practice","<div class = shapebox><div class = fixation>+</div></div>","none","500","","","","","","","","",""
"","555","77","1850","0","stim","poldrack-single-stim","12","54645","0.0-1.0-10.0","stop_signal","","NoSS_practice","<div class = shapebox><img class = stim src = /static/experiments/stop_signal/images/pentagon.png></img></div>","77,90","850","77","NoSS_practice","4","","","","","",""
"","-1","-1","500","0","fixation","poldrack-single-stim","13","55153","0.0-1.0-11.0","stop_signal","","practice","<div class = shapebox><div class = fixation>+</div></div>","none","500","","","","","","","","",""
"","403","77","1850","0","stim","poldrack-single-stim","14","57012","0.0-1.0-12.0","stop_signal","","NoSS_practice","<div class = shapebox><img class = stim src = /static/experiments/stop_signal/images/pentagon.png></img></div>","77,90","850","77","NoSS_practice","5","","","","","",""
"","-1","-1","500","0","fixation","poldrack-single-stim","15","57521","0.0-1.0-13.0","stop_signal","","practice","<div class = shapebox><div class = fixation>+</div></div>","none","500","","","","","","","","",""
"","572","90","1850","0","stim","poldrack-single-stim","16","59382","0.0-1.0-14.0","stop_signal","","NoSS_practice","<div class = shapebox><img class = stim src = /static/experiments/stop_signal/images/square.png></img></div>","77,90","850","90","NoSS_practice","6","","","","","",""
"","-1","-1","500","0","fixation","poldrack-single-stim","17","59894","0.0-1.0-15.0","stop_signal","","practice","<div class = shapebox><div class = fixation>+</div></div>","none","500","","","","","","","","",""
"","679","90","1850","0","stim","poldrack-single-stim","18","61761","0.0-1.0-16.0","stop_signal","","NoSS_practice","<div class = shapebox><img class = stim src = /static/experiments/stop_signal/images/square.png></img></div>","77,90","850","90","NoSS_practice","7","","","","","",""
"","-1","-1","500","0","fixation","poldrack-single-stim","19","62273","0.0-1.0-17.0","stop_signal","","practice","<div class = shapebox><div class = fixation>+</div></div>","none","500","","","","","","","","",""
"","725","90","1850","0","stim","poldrack-single-stim","20","64126","0.0-1.0-18.0","stop_signal","","NoSS_practice","<div class = shapebox><img class = stim src = /static/experiments/stop_signal/images/tear.png></img></div>","77,90","850","90","NoSS_practice","8","","","","","",""
"","-1","-1","500","0","fixation","poldrack-single-stim","21","64637","0.0-1.0-19.0","stop_signal","","practice","<div class = shapebox><div class = fixation>+</div></div>","none","500","","","","","","","","",""
"","529","90","1850","0","stim","poldrack-single-stim","22","66494","0.0-1.0-20.0","stop_signal","","NoSS_practice","<div class = shapebox><img class = stim src = /static/experiments/stop_signal/images/square.png></img></div>","77,90","850","90","NoSS_practice","9","","","","","",""
"","-1","-1","500","0","fixation","poldrack-single-stim","23","67005","0.0-1.0-21.0","stop_signal","","practice","<div class = shapebox><div class = fixation>+</div></div>","none","500","","","","","","","","",""
"","584","77","1850","0","stim","poldrack-single-stim","24","68860","0.0-1.0-22.0","stop_signal","","NoSS_practice","<div class = shapebox><img class = stim src = /static/experiments/stop_signal/images/hourglass.png></img></div>","77,90","850","77","NoSS_practice","10","","","","","",""
"","-1","-1","500","0","fixation","poldrack-single-stim","25","69371","0.0-1.0-23.0","stop_signal","","practice","<div class = shapebox><div class = fixation>+</div></div>","none","500","","","","","","","","",""
"","370","77","1850","0","stim","poldrack-single-stim","26","71229","0.0-1.0-24.0","stop_signal","","NoSS_practice","<div class = shapebox><img class = stim src = /static/experiments/stop_signal/images/pentagon.png></img></div>","77,90","850","77","NoSS_practice","11","","","","","",""
"<div class = centerbox><p class = block-text></p><p class = block-text><strong>Average reaction time:  578 ms. Accuracy for non-star trials: 92%</strong></p><p class = block-text>For the rest of the experiment, on some proportion of trials a black ""stop signal"" in the shape of a star will appear around the shape. When this happens please try your best to stop your response and press nothing on that trial.</p><p class = block-text>The star will appear around the same time or shortly after the shape appears. Because of this, you will not always be able to successfully stop when a star appears. However, if you continue to try very hard to stop when a star appears, you will be able to stop sometimes but not always.</p><p class = block-text><strong>Please balance the requirement to respond quickly and accurately to the shapes while trying very hard to stop to the stop signal.</strong></p><p class = block-text>Press <strong>Enter</strong> to continue</p></div>","3237","13","3237","1000","feedback","poldrack-text","27","74486","0.0-2.0-0.0","stop_signal","","practice","","","","","","","","","","","",""
"","-1","-1","500","0","fixation","poldrack-single-stim","28","76012","0.0-2.0-1.0","stop_signal","","practice","<div class = shapebox><div class = fixation>+</div></div>","none","500","","","","","","","","",""
"","672","90","1850","0","stim","stop-signal","29","77868","0.0-2.0-2.0","stop_signal","","practice","<div class = shapebox><img class = stim src = /static/experiments/stop_signal/images/square.png></img></div>","77,90","850","90","practice","0","<div class = stopbox><div class = centered-shape id = stop-signal></div><div class = centered-shape id = stop-signal-inner></div></div>","250","go","500","",""
"","-1","-1","500","0","fixation","poldrack-single-stim","30","78374","0.0-2.0-3.0","stop_signal","","practice","<div class = shapebox><div class = fixation>+</div></div>","none","500","","","","","","","","",""
"","470","90","1850","0","stim","stop-signal","31","80236","0.0-2.0-4.0","stop_signal","","practice","<div class = shapebox><img class = stim src = /static/experiments/stop_signal/images/tear.png></img></div>","77,90","850","90","practice","1","<div class = stopbox><div class = centered-shape id = stop-signal></div><div class = centered-shape id = stop-signal-inner></div></div>","250","stop","500","",""
"","-1","-1","500","0","fixation","poldrack-single-stim","32","80747","0.0-2.0-5.0","stop_signal","","practice","<div class = shapebox><div class = fixation>+</div></div>","none","500","","","","","","","","",""
"","363","90","1850","0","stim","stop-signal","33","82606","0.0-2.0-6.0","stop_signal","","practice","<div class = shapebox><img class = stim src = /static/experiments/stop_signal/images/tear.png></img></div>","77,90","850","90","practice","2","<div class = stopbox><div class = centered-shape id = stop-signal></div><div class = centered-shape id = stop-signal-inner></div></div>","250","go","500","",""
"","-1","-1","500","0","fixation","poldrack-single-stim","34","83118","0.0-2.0-7.0","stop_signal","","practice","<div class = shapebox><div class = fixation>+</div></div>","none","500","","","","","","","","",""
"","479","77","1850","0","stim","stop-signal","35","84975","0.0-2.0-8.0","stop_signal","","practice","<div class = shapebox><img class = stim src = /static/experiments/stop_signal/images/hourglass.png></img></div>","77,90","850","77","practice","3","<div class = stopbox><div class = centered-shape id = stop-signal></div><div class = centered-shape id = stop-signal-inner></div></div>","250","go","500","",""
"","-1","-1","500","0","fixation","poldrack-single-stim","36","85488","0.0-2.0-9.0","stop_signal","","practice","<div class = shapebox><div class = fixation>+</div></div>","none","500","","","","","","","","",""
"","413","77","1850","0","stim","stop-signal","37","87347","0.0-2.0-10.0","stop_signal","","practice","<div class = shapebox><img class = stim src = /static/experiments/stop_signal/images/pentagon.png></img></div>","77,90","850","77","practice","4","<div class = stopbox><div class = centered-shape id = stop-signal></div><div class = centered-shape id = stop-signal-inner></div></div>","250","go","500","",""
"","-1","-1","500","0","fixation","poldrack-single-stim","38","87855","0.0-2.0-11.0","stop_signal","","practice","<div class = shapebox><div class = fixation>+</div></div>","none","500","","","","","","","","",""
"","397","77","1850","0","stim","stop-signal","39","89713","0.0-2.0-12.0","stop_signal","","practice","<div class = shapebox><img class = stim src = /static/experiments/stop_signal/images/hourglass.png></img></div>","77,90","850","77","practice","5","<div class = stopbox><div class = centered-shape id = stop-signal></div><div class = centered-shape id = stop-signal-inner></div></div>","250","go","500","",""
"","-1","-1","500","0","fixation","poldrack-single-stim","40","90225","0.0-2.0-13.0","stop_signal","","practice","<div class = shapebox><div class = fixation>+</div></div>","none","500","","","","","","","","",""
"","636","90","1850","0","stim","stop-signal","41","92081","0.0-2.0-14.0","stop_signal","","practice","<div class = shapebox><img class = stim src = /static/experiments/stop_signal/images/square.png></img></div>","77,90","850","90","practice","6","<div class = stopbox><div class = centered-shape id = stop-signal></div><div class = centered-shape id = stop-signal-inner></div></div>","250","go","500","",""
"","-1","-1","500","0","fixation","poldrack-single-stim","42","92593","0.0-2.0-15.0","stop_signal","","practice","<div class = shapebox><div class = fixation>+</div></div>","none","500","","","","","","","","",""
"","413","77","1850","0","stim","stop-signal","43","94456","0.0-2.0-16.0","stop_signal","","practice","<div class = shapebox><img class = stim src = /static/experiments/stop_signal/images/hourglass.png></img></div>","77,90","850","77","practice","7","<div class = stopbox><div class = centered-shape id = stop-signal></div><div class = centered-shape id = stop-signal-inner></div></div>","250","go","500","",""
"","-1","-1","500","0","fixation","poldrack-single-stim","44","94969","0.0-2.0-17.0","stop_signal","","practice","<div class = shapebox><div class = fixation>+</div></div>","none","500","","","","","","","","",""
"","389","77","1850","0","stim","stop-signal","45","96824","0.0-2.0-18.0","stop_signal","","practice","<div class = shapebox><img class = stim src = /static/experiments/stop_signal/images/pentagon.png></img></div>","77,90","850","77","practice","8","<div class = stopbox><div class = centered-shape id = stop-signal></div><div class = centered-shape id = stop-signal-inner></div></div>","250","stop","500","",""
"","-1","-1","500","0","fixation","poldrack-single-stim","46","97334","0.0-2.0-19.0","stop_signal","","practice","<div class = shapebox><div class = fixation>+</div></div>","none","500","","","","","","","","",""
"","328","77","1850","0","stim","stop-signal","47","99190","0.0-2.0-20.0","stop_signal","","practice","<div class = shapebox><img class = stim src = /static/experiments/stop_signal/images/pentagon.png></img></div>","77,90","850","77","practice","9","<div class = stopbox><div class = centered-shape id = stop-signal></div><div class = centered-shape id = stop-signal-inner></div></div>","250","go","500","",""
"","-1","-1","500","0","fixation","poldrack-single-stim","48","99701","0.0-2.0-21.0","stop_signal","","practice","<div class = shapebox><div class = fixation>+</div></div>","none","500","","","","","","","","",""
"","648","77","1850","0","stim","stop-signal","49","101560","0.0-2.0-22.0","stop_signal","","practice","<div class = shapebox><img class = stim src = /static/experiments/stop_signal/images/pentagon.png></img></div>","77,90","850","77","practice","10","<div class = stopbox><div class = centered-shape id = stop-signal></div><div class = centered-shape id = stop-signal-inner></div></div>","250","stop","500","",""
"","-1","-1","500","0","fixation","poldrack-single-stim","50","102069","0.0-2.0-23.0","stop_signal","","practice","<div class = shapebox><div class = fixation>+</div></div>","none","500","","","","","","","","",""
"","400","90","1850","0","stim","stop-signal","51","103928","0.0-2.0-24.0","stop_signal","","practice","<div class = shapebox><img class = stim src = /static/experiments/stop_signal/images/square.png></img></div>","77,90","850","90","practice","11","<div class = stopbox><div class = centered-shape id = stop-signal></div><div class = centered-shape id = stop-signal-inner></div></div>","250","go","500","",""
"","-1","-1","500","0","fixation","poldrack-single-stim","52","104440","0.0-2.0-25.0","stop_signal","","practice","<div class = shapebox><div class = fixation>+</div></div>","none","500","","","","","","","","",""
"","405","77","1850","0","stim","stop-signal","53","106298","0.0-2.0-26.0","stop_signal","","practice","<div class = shapebox><img class = stim src = /static/experiments/stop_signal/images/pentagon.png></img></div>","77,90","850","77","practice","12","<div class = stopbox><div class = centered-shape id = stop-signal></div><div class = centered-shape id = stop-signal-inner></div></div>","250","go","500","",""
"","-1","-1","500","0","fixation","poldrack-single-stim","54","106807","0.0-2.0-27.0","stop_signal","","practice","<div class = shapebox><div class = fixation>+</div></div>","none","500","","","","","","","","",""
"","526","77","1850","0","stim","stop-signal","55","108672","0.0-2.0-28.0","stop_signal","","practice","<div class = shapebox><img class = stim src = /static/experiments/stop_signal/images/hourglass.png></img></div>","77,90","850","77","practice","13","<div class = stopbox><div class = centered-shape id = stop-signal></div><div class = centered-shape id = stop-signal-inner></div></div>","250","stop","500","",""
"","-1","-1","500","0","fixation","poldrack-single-stim","56","109181","0.0-2.0-29.0","stop_signal","","practice","<div class = shapebox><div class = fixation>+</div></div>","none","500","","","","","","","","",""
"","384","77","1850","0","stim","stop-signal","57","111035","0.0-2.0-30.0","stop_signal","","practice","<div class = shapebox><img class = stim src = /static/experiments/stop_signal/images/hourglass.png></img></div>","77,90","850","77","practice","14","<div class = stopbox><div class = centered-shape id = stop-signal></div><div class = centered-shape id = stop-signal-inner></div></div>","250","stop","500","",""
"","-1","-1","500","0","fixation","poldrack-single-stim","58","111540","0.0-2.0-31.0","stop_signal","","practice","<div class = shapebox><div class = fixation>+</div></div>","none","500","","","","","","","","",""
"","625","90","1850","0","stim","stop-signal","59","113397","0.0-2.0-32.0","stop_signal","","practice","<div class = shapebox><img class = stim src = /static/experiments/stop_signal/images/square.png></img></div>","77,90","850","90","practice","15","<div class = stopbox><div class = centered-shape id = stop-signal></div><div class = centered-shape id = stop-signal-inner></div></div>","250","go","500","",""
"","-1","-1","500","0","fixation","poldrack-single-stim","60","113910","0.0-2.0-33.0","stop_signal","","practice","<div class = shapebox><div class = fixation>+</div></div>","none","500","","","","","","","","",""
"","463","77","1850","0","stim","stop-signal","61","115770","0.0-2.0-34.0","stop_signal","","practice","<div class = shapebox><img class = stim src = /static/experiments/stop_signal/images/square.png></img></div>","77,90","850","90","practice","16","<div class = stopbox><div class = centered-shape id = stop-signal></div><div class = centered-shape id = stop-signal-inner></div></div>","250","go","500","",""
"","-1","-1","500","0","fixation","poldrack-single-stim","62","116280","0.0-2.0-35.0","stop_signal","","practice","<div class = shapebox><div class = fixation>+</div></div>","none","500","","","","","","","","",""
"","438","90","1850","0","stim","stop-signal","63","118139","0.0-2.0-36.0","stop_signal","","practice","<div class = shapebox><img class = stim src = /static/experiments/stop_signal/images/tear.png></img></div>","77,90","850","90","practice","17","<div class = stopbox><div class = centered-shape id = stop-signal></div><div class = centered-shape id = stop-signal-inner></div></div>","250","go","500","",""
"","-1","-1","500","0","fixation","poldrack-single-stim","64","118651","0.0-2.0-37.0","stop_signal","","practice","<div class = shapebox><div class = fixation>+</div></div>","none","500","","","","","","","","",""
"","330","90","1850","0","stim","stop-signal","65","120510","0.0-2.0-38.0","stop_signal","","practice","<div class = shapebox><img class = stim src = /static/experiments/stop_signal/images/tear.png></img></div>","77,90","850","90","practice","18","<div class = stopbox><div class = centered-shape id = stop-signal></div><div class = centered-shape id = stop-signal-inner></div></div>","250","stop","500","",""
"","-1","-1","500","0","fixation","poldrack-single-stim","66","121019","0.0-2.0-39.0","stop_signal","","practice","<div class = shapebox><div class = fixation>+</div></div>","none","500","","","","","","","","",""
"","386","90","1850","0","stim","stop-signal","67","122876","0.0-2.0-40.0","stop_signal","","practice","<div class = shapebox><img class = stim src = /static/experiments/stop_signal/images/tear.png></img></div>","77,90","850","90","practice","19","<div class = stopbox><div class = centered-shape id = stop-signal></div><div class = centered-shape id = stop-signal-inner></div></div>","250","go","500","",""
"<div class = centerbox><p class = block-text></p><p class = block-text><strong>Average reaction time:  413 ms. Accuracy for non-star trials: 93%</strong></p><p class = block-text>We will try another practice block. </p><p class = block-text><strong>Remember to try and withhold your response when you see a stop signal.</strong></p><p class = block-text>Press <strong>Enter</strong> to continue</p></div>","8017","13","8017","1000","feedback","poldrack-text","68","130894","0.0-2.1-0.1","stop_signal","","practice","","","","","","","","","","","",""
"","-1","-1","500","0","fixation","poldrack-single-stim","69","132420","0.0-2.1-1.1","stop_signal","","practice","<div class = shapebox><div class = fixation>+</div></div>","none","500","","","","","","","","",""
"","578","77","1850","0","stim","stop-signal","70","134276","0.0-2.1-2.1","stop_signal","","practice","<div class = shapebox><img class = stim src = /static/experiments/stop_signal/images/pentagon.png></img></div>","77,90","850","77","practice","20","<div class = stopbox><div class = centered-shape id = stop-signal></div><div class = centered-shape id = stop-signal-inner></div></div>","250","go","500","",""
"","-1","-1","500","0","fixation","poldrack-single-stim","71","134787","0.0-2.1-3.1","stop_signal","","practice","<div class = shapebox><div class = fixation>+</div></div>","none","500","","","","","","","","",""
"","483","90","1850","0","stim","stop-signal","72","136642","0.0-2.1-4.1","stop_signal","","practice","<div class = shapebox><img class = stim src = /static/experiments/stop_signal/images/square.png></img></div>","77,90","850","90","practice","21","<div class = stopbox><div class = centered-shape id = stop-signal></div><div class = centered-shape id = stop-signal-inner></div></div>","250","go","500","",""
"","-1","-1","500","0","fixation","poldrack-single-stim","73","137152","0.0-2.1-5.1","stop_signal","","practice","<div class = shapebox><div class = fixation>+</div></div>","none","500","","","","","","","","",""
"","413","77","1850","0","stim","stop-signal","74","139007","0.0-2.1-6.1","stop_signal","","practice","<div class = shapebox><img class = stim src = /static/experiments/stop_signal/images/tear.png></img></div>","77,90","850","90","practice","22","<div class = stopbox><div class = centered-shape id = stop-signal></div><div class = centered-shape id = stop-signal-inner></div></div>","250","go","500","",""
"","-1","-1","500","0","fixation","poldrack-single-stim","75","139519","0.0-2.1-7.1","stop_signal","","practice","<div class = shapebox><div class = fixation>+</div></div>","none","500","","","","","","","","",""
"","566","77","1850","0","stim","stop-signal","76","141377","0.0-2.1-8.1","stop_signal","","practice","<div class = shapebox><img class = stim src = /static/experiments/stop_signal/images/pentagon.png></img></div>","77,90","850","77","practice","23","<div class = stopbox><div class = centered-shape id = stop-signal></div><div class = centered-shape id = stop-signal-inner></div></div>","250","go","500","",""
"","-1","-1","500","0","fixation","poldrack-single-stim","77","141887","0.0-2.1-9.1","stop_signal","","practice","<div class = shapebox><div class = fixation>+</div></div>","none","500","","","","","","","","",""
"","390","90","1850","0","stim","stop-signal","78","143749","0.0-2.1-10.1","stop_signal","","practice","<div class = shapebox><img class = stim src = /static/experiments/stop_signal/images/square.png></img></div>","77,90","850","90","practice","24","<div class = stopbox><div class = centered-shape id = stop-signal></div><div class = centered-shape id = stop-signal-inner></div></div>","250","go","500","",""
"","-1","-1","500","0","fixation","poldrack-single-stim","79","144262","0.0-2.1-11.1","stop_signal","","practice","<div class = shapebox><div class = fixation>+</div></div>","none","500","","","","","","","","",""
"","511","77","1850","0","stim","stop-signal","80","146116","0.0-2.1-12.1","stop_signal","","practice","<div class = shapebox><img class = stim src = /static/experiments/stop_signal/images/hourglass.png></img></div>","77,90","850","77","practice","25","<div class = stopbox><div class = centered-shape id = stop-signal></div><div class = centered-shape id = stop-signal-inner></div></div>","250","go","500","",""
"","-1","-1","500","0","fixation","poldrack-single-stim","81","146628","0.0-2.1-13.1","stop_signal","","practice","<div class = shapebox><div class = fixation>+</div></div>","none","500","","","","","","","","",""
"","506","90","1850","0","stim","stop-signal","82","148484","0.0-2.1-14.1","stop_signal","","practice","<div class = shapebox><img class = stim src = /static/experiments/stop_signal/images/square.png></img></div>","77,90","850","90","practice","26","<div class = stopbox><div class = centered-shape id = stop-signal></div><div class = centered-shape id = stop-signal-inner></div></div>","250","stop","500","",""
"","-1","-1","500","0","fixation","poldrack-single-stim","83","148996","0.0-2.1-15.1","stop_signal","","practice","<div class = shapebox><div class = fixation>+</div></div>","none","500","","","","","","","","",""
"","586","77","1850","0","stim","stop-signal","84","150847","0.0-2.1-16.1","stop_signal","","practice","<div class = shapebox><img class = stim src = /static/experiments/stop_signal/images/pentagon.png></img></div>","77,90","850","77","practice","27","<div class = stopbox><div class = centered-shape id = stop-signal></div><div class = centered-shape id = stop-signal-inner></div></div>","250","go","500","",""
"","-1","-1","500","0","fixation","poldrack-single-stim","85","151358","0.0-2.1-17.1","stop_signal","","practice","<div class = shapebox><div class = fixation>+</div></div>","none","500","","","","","","","","",""
"","503","77","1850","0","stim","stop-signal","86","153214","0.0-2.1-18.1","stop_signal","","practice","<div class = shapebox><img class = stim src = /static/experiments/stop_signal/images/hourglass.png></img></div>","77,90","850","77","practice","28","<div class = stopbox><div class = centered-shape id = stop-signal></div><div class = centered-shape id = stop-signal-inner></div></div>","250","stop","500","",""
"","-1","-1","500","0","fixation","poldrack-single-stim","87","153726","0.0-2.1-19.1","stop_signal","","practice","<div class = shapebox><div class = fixation>+</div></div>","none","500","","","","","","","","",""
"","535","90","1850","0","stim","stop-signal","88","155586","0.0-2.1-20.1","stop_signal","","practice","<div class = shapebox><img class = stim src = /static/experiments/stop_signal/images/tear.png></img></div>","77,90","850","90","practice","29","<div class = stopbox><div class = centered-shape id = stop-signal></div><div class = centered-shape id = stop-signal-inner></div></div>","250","stop","500","",""
"","-1","-1","500","0","fixation","poldrack-single-stim","89","156099","0.0-2.1-21.1","stop_signal","","practice","<div class = shapebox><div class = fixation>+</div></div>","none","500","","","","","","","","",""
"","609","77","1850","0","stim","stop-signal","90","157960","0.0-2.1-22.1","stop_signal","","practice","<div class = shapebox><img class = stim src = /static/experiments/stop_signal/images/pentagon.png></img></div>","77,90","850","77","practice","30","<div class = stopbox><div class = centered-shape id = stop-signal></div><div class = centered-shape id = stop-signal-inner></div></div>","250","go","500","",""
"","-1","-1","500","0","fixation","poldrack-single-stim","91","158474","0.0-2.1-23.1","stop_signal","","practice","<div class = shapebox><div class = fixation>+</div></div>","none","500","","","","","","","","",""
"","435","77","1850","0","stim","stop-signal","92","160332","0.0-2.1-24.1","stop_signal","","practice","<div class = shapebox><img class = stim src = /static/experiments/stop_signal/images/pentagon.png></img></div>","77,90","850","77","practice","31","<div class = stopbox><div class = centered-shape id = stop-signal></div><div class = centered-shape id = stop-signal-inner></div></div>","250","stop","500","",""
"","-1","-1","500","0","fixation","poldrack-single-stim","93","160843","0.0-2.1-25.1","stop_signal","","practice","<div class = shapebox><div class = fixation>+</div></div>","none","500","","","","","","","","",""
"","475","90","1850","0","stim","stop-signal","94","162704","0.0-2.1-26.1","stop_signal","","practice","<div class = shapebox><img class = stim src = /static/experiments/stop_signal/images/tear.png></img></div>","77,90","850","90","practice","32","<div class = stopbox><div class = centered-shape id = stop-signal></div><div class = centered-shape id = stop-signal-inner></div></div>","250","stop","500","",""
"","-1","-1","500","0","fixation","poldrack-single-stim","95","163217","0.0-2.1-27.1","stop_signal","","practice","<div class = shapebox><div class = fixation>+</div></div>","none","500","","","","","","","","",""
"","364","90","1850","0","stim","stop-signal","96","165077","0.0-2.1-28.1","stop_signal","","practice","<div class = shapebox><img class = stim src = /static/experiments/stop_signal/images/tear.png></img></div>","77,90","850","90","practice","33","<div class = stopbox><div class = centered-shape id = stop-signal></div><div class = centered-shape id = stop-signal-inner></div></div>","250","go","500","",""
"","-1","-1","500","0","fixation","poldrack-single-stim","97","165590","0.0-2.1-29.1","stop_signal","","practice","<div class = shapebox><div class = fixation>+</div></div>","none","500","","","","","","","","",""
"","480","77","1850","0","stim","stop-signal","98","167449","0.0-2.1-30.1","stop_signal","","practice","<div class = shapebox><img class = stim src = /static/experiments/stop_signal/images/hourglass.png></img></div>","77,90","850","77","practice","34","<div class = stopbox><div class = centered-shape id = stop-signal></div><div class = centered-shape id = stop-signal-inner></div></div>","250","go","500","",""
"","-1","-1","500","0","fixation","poldrack-single-stim","99","167960","0.0-2.1-31.1","stop_signal","","practice","<div class = shapebox><div class = fixation>+</div></div>","none","500","","","","","","","","",""
"","438","77","1850","0","stim","stop-signal","100","169816","0.0-2.1-32.1","stop_signal","","practice","<div class = shapebox><img class = stim src = /static/experiments/stop_signal/images/hourglass.png></img></div>","77,90","850","77","practice","35","<div class = stopbox><div class = centered-shape id = stop-signal></div><div class = centered-shape id = stop-signal-inner></div></div>","250","go","500","",""
"","-1","-1","500","0","fixation","poldrack-single-stim","101","170328","0.0-2.1-33.1","stop_signal","","practice","<div class = shapebox><div class = fixation>+</div></div>","none","500","","","","","","","","",""
"","492","90","1850","0","stim","stop-signal","102","172189","0.0-2.1-34.1","stop_signal","","practice","<div class = shapebox><img class = stim src = /static/experiments/stop_signal/images/square.png></img></div>","77,90","850","90","practice","36","<div class = stopbox><div class = centered-shape id = stop-signal></div><div class = centered-shape id = stop-signal-inner></div></div>","250","stop","500","",""
"","-1","-1","500","0","fixation","poldrack-single-stim","103","172698","0.0-2.1-35.1","stop_signal","","practice","<div class = shapebox><div class = fixation>+</div></div>","none","500","","","","","","","","",""
"","499","90","1850","0","stim","stop-signal","104","174558","0.0-2.1-36.1","stop_signal","","practice","<div class = shapebox><img class = stim src = /static/experiments/stop_signal/images/tear.png></img></div>","77,90","850","90","practice","37","<div class = stopbox><div class = centered-shape id = stop-signal></div><div class = centered-shape id = stop-signal-inner></div></div>","250","go","500","",""
"","-1","-1","500","0","fixation","poldrack-single-stim","105","175070","0.0-2.1-37.1","stop_signal","","practice","<div class = shapebox><div class = fixation>+</div></div>","none","500","","","","","","","","",""
"","480","90","1850","0","stim","stop-signal","106","176926","0.0-2.1-38.1","stop_signal","","practice","<div class = shapebox><img class = stim src = /static/experiments/stop_signal/images/square.png></img></div>","77,90","850","90","practice","38","<div class = stopbox><div class = centered-shape id = stop-signal></div><div class = centered-shape id = stop-signal-inner></div></div>","250","go","500","",""
"","-1","-1","500","0","fixation","poldrack-single-stim","107","177435","0.0-2.1-39.1","stop_signal","","practice","<div class = shapebox><div class = fixation>+</div></div>","none","500","","","","","","","","",""
"","465","77","1850","0","stim","stop-signal","108","179293","0.0-2.1-40.1","stop_signal","","practice","<div class = shapebox><img class = stim src = /static/experiments/stop_signal/images/hourglass.png></img></div>","77,90","850","77","practice","39","<div class = stopbox><div class = centered-shape id = stop-signal></div><div class = centered-shape id = stop-signal-inner></div></div>","250","go","500","",""
"<div class = centerbox><p class = block-text></p><p class = block-text><strong>Average reaction time:  482 ms. Accuracy for non-star trials: 93%</strong></p><p class = block-text>We will try another practice block. </p><p class = block-text><strong>Remember to try and withhold your response when you see a stop signal.</strong></p><p class = block-text>Press <strong>Enter</strong> to continue</p></div>","4703","13","4703","1000","feedback","poldrack-text","109","183998","0.0-2.2-0.2","stop_signal","","practice","","","","","","","","","","","",""
"","-1","-1","500","0","fixation","poldrack-single-stim","110","185513","0.0-2.2-1.2","stop_signal","","practice","<div class = shapebox><div class = fixation>+</div></div>","none","500","","","","","","","","",""
"","693","77","1850","0","stim","stop-signal","111","187373","0.0-2.2-2.2","stop_signal","","practice","<div class = shapebox><img class = stim src = /static/experiments/stop_signal/images/hourglass.png></img></div>","77,90","850","77","practice","40","<div class = stopbox><div class = centered-shape id = stop-signal></div><div class = centered-shape id = stop-signal-inner></div></div>","250","stop","500","",""
"","-1","-1","500","0","fixation","poldrack-single-stim","112","187886","0.0-2.2-3.2","stop_signal","","practice","<div class = shapebox><div class = fixation>+</div></div>","none","500","","","","","","","","",""
"","351","90","1850","0","stim","stop-signal","113","189741","0.0-2.2-4.2","stop_signal","","practice","<div class = shapebox><img class = stim src = /static/experiments/stop_signal/images/square.png></img></div>","77,90","850","90","practice","41","<div class = stopbox><div class = centered-shape id = stop-signal></div><div class = centered-shape id = stop-signal-inner></div></div>","250","go","500","",""
"","-1","-1","500","0","fixation","poldrack-single-stim","114","190253","0.0-2.2-5.2","stop_signal","","practice","<div class = shapebox><div class = fixation>+</div></div>","none","500","","","","","","","","",""
"","503","90","1850","0","stim","stop-signal","115","192111","0.0-2.2-6.2","stop_signal","","practice","<div class = shapebox><img class = stim src = /static/experiments/stop_signal/images/square.png></img></div>","77,90","850","90","practice","42","<div class = stopbox><div class = centered-shape id = stop-signal></div><div class = centered-shape id = stop-signal-inner></div></div>","250","go","500","",""
"","-1","-1","500","0","fixation","poldrack-single-stim","116","192619","0.0-2.2-7.2","stop_signal","","practice","<div class = shapebox><div class = fixation>+</div></div>","none","500","","","","","","","","",""
"","497","77","1850","0","stim","stop-signal","117","194474","0.0-2.2-8.2","stop_signal","","practice","<div class = shapebox><img class = stim src = /static/experiments/stop_signal/images/pentagon.png></img></div>","77,90","850","77","practice","43","<div class = stopbox><div class = centered-shape id = stop-signal></div><div class = centered-shape id = stop-signal-inner></div></div>","250","stop","500","",""
"","-1","-1","500","0","fixation","poldrack-single-stim","118","194984","0.0-2.2-9.2","stop_signal","","practice","<div class = shapebox><div class = fixation>+</div></div>","none","500","","","","","","","","",""
"","405","77","1850","0","stim","stop-signal","119","196840","0.0-2.2-10.2","stop_signal","","practice","<div class = shapebox><img class = stim src = /static/experiments/stop_signal/images/hourglass.png></img></div>","77,90","850","77","practice","44","<div class = stopbox><div class = centered-shape id = stop-signal></div><div class = centered-shape id = stop-signal-inner></div></div>","250","go","500","",""
"","-1","-1","500","0","fixation","poldrack-single-stim","120","197353","0.0-2.2-11.2","stop_signal","","practice","<div class = shapebox><div class = fixation>+</div></div>","none","500","","","","","","","","",""
"","484","90","1850","0","stim","stop-signal","121","199210","0.0-2.2-12.2","stop_signal","","practice","<div class = shapebox><img class = stim src = /static/experiments/stop_signal/images/square.png></img></div>","77,90","850","90","practice","45","<div class = stopbox><div class = centered-shape id = stop-signal></div><div class = centered-shape id = stop-signal-inner></div></div>","250","stop","500","",""
"","-1","-1","500","0","fixation","poldrack-single-stim","122","199720","0.0-2.2-13.2","stop_signal","","practice","<div class = shapebox><div class = fixation>+</div></div>","none","500","","","","","","","","",""
"","517","77","1850","0","stim","stop-signal","123","201578","0.0-2.2-14.2","stop_signal","","practice","<div class = shapebox><img class = stim src = /static/experiments/stop_signal/images/pentagon.png></img></div>","77,90","850","77","practice","46","<div class = stopbox><div class = centered-shape id = stop-signal></div><div class = centered-shape id = stop-signal-inner></div></div>","250","go","500","",""
"","-1","-1","500","0","fixation","poldrack-single-stim","124","202088","0.0-2.2-15.2","stop_signal","","practice","<div class = shapebox><div class = fixation>+</div></div>","none","500","","","","","","","","",""
"","388","77","1850","0","stim","stop-signal","125","203950","0.0-2.2-16.2","stop_signal","","practice","<div class = shapebox><img class = stim src = /static/experiments/stop_signal/images/pentagon.png></img></div>","77,90","850","77","practice","47","<div class = stopbox><div class = centered-shape id = stop-signal></div><div class = centered-shape id = stop-signal-inner></div></div>","250","go","500","",""
"","-1","-1","500","0","fixation","poldrack-single-stim","126","204462","0.0-2.2-17.2","stop_signal","","practice","<div class = shapebox><div class = fixation>+</div></div>","none","500","","","","","","","","",""
"","519","90","1850","0","stim","stop-signal","127","206320","0.0-2.2-18.2","stop_signal","","practice","<div class = shapebox><img class = stim src = /static/experiments/stop_signal/images/tear.png></img></div>","77,90","850","90","practice","48","<div class = stopbox><div class = centered-shape id = stop-signal></div><div class = centered-shape id = stop-signal-inner></div></div>","250","go","500","",""
"","-1","-1","500","0","fixation","poldrack-single-stim","128","206832","0.0-2.2-19.2","stop_signal","","practice","<div class = shapebox><div class = fixation>+</div></div>","none","500","","","","","","","","",""
"","508","77","1850","0","stim","stop-signal","129","208693","0.0-2.2-20.2","stop_signal","","practice","<div class = shapebox><img class = stim src = /static/experiments/stop_signal/images/hourglass.png></img></div>","77,90","850","77","practice","49","<div class = stopbox><div class = centered-shape id = stop-signal></div><div class = centered-shape id = stop-signal-inner></div></div>","250","stop","500","",""
"","-1","-1","500","0","fixation","poldrack-single-stim","130","209205","0.0-2.2-21.2","stop_signal","","practice","<div class = shapebox><div class = fixation>+</div></div>","none","500","","","","","","","","",""
"","503","90","1850","0","stim","stop-signal","131","211067","0.0-2.2-22.2","stop_signal","","practice","<div class = shapebox><img class = stim src = /static/experiments/stop_signal/images/square.png></img></div>","77,90","850","90","practice","50","<div class = stopbox><div class = centered-shape id = stop-signal></div><div class = centered-shape id = stop-signal-inner></div></div>","250","go","500","",""
"","-1","-1","500","0","fixation","poldrack-single-stim","132","211574","0.0-2.2-23.2","stop_signal","","practice","<div class = shapebox><div class = fixation>+</div></div>","none","500","","","","","","","","",""
"","494","90","1850","0","stim","stop-signal","133","213434","0.0-2.2-24.2","stop_signal","","practice","<div class = shapebox><img class = stim src = /static/experiments/stop_signal/images/tear.png></img></div>","77,90","850","90","practice","51","<div class = stopbox><div class = centered-shape id = stop-signal></div><div class = centered-shape id = stop-signal-inner></div></div>","250","go","500","",""
"","-1","-1","500","0","fixation","poldrack-single-stim","134","213943","0.0-2.2-25.2","stop_signal","","practice","<div class = shapebox><div class = fixation>+</div></div>","none","500","","","","","","","","",""
"","519","90","1850","0","stim","stop-signal","135","215801","0.0-2.2-26.2","stop_signal","","practice","<div class = shapebox><img class = stim src = /static/experiments/stop_signal/images/tear.png></img></div>","77,90","850","90","practice","52","<div class = stopbox><div class = centered-shape id = stop-signal></div><div class = centered-shape id = stop-signal-inner></div></div>","250","go","500","",""
"","-1","-1","500","0","fixation","poldrack-single-stim","136","216309","0.0-2.2-27.2","stop_signal","","practice","<div class = shapebox><div class = fixation>+</div></div>","none","500","","","","","","","","",""
"","465","77","1850","0","stim","stop-signal","137","218168","0.0-2.2-28.2","stop_signal","","practice","<div class = shapebox><img class = stim src = /static/experiments/stop_signal/images/tear.png></img></div>","77,90","850","90","practice","53","<div class = stopbox><div class = centered-shape id = stop-signal></div><div class = centered-shape id = stop-signal-inner></div></div>","250","go","500","",""
"","-1","-1","500","0","fixation","poldrack-single-stim","138","218678","0.0-2.2-29.2","stop_signal","","practice","<div class = shapebox><div class = fixation>+</div></div>","none","500","","","","","","","","",""
"","486","77","1850","0","stim","stop-signal","139","220540","0.0-2.2-30.2","stop_signal","","practice","<div class = shapebox><img class = stim src = /static/experiments/stop_signal/images/pentagon.png></img></div>","77,90","850","77","practice","54","<div class = stopbox><div class = centered-shape id = stop-signal></div><div class = centered-shape id = stop-signal-inner></div></div>","250","go","500","",""
"","-1","-1","500","0","fixation","poldrack-single-stim","140","221050","0.0-2.2-31.2","stop_signal","","practice","<div class = shapebox><div class = fixation>+</div></div>","none","500","","","","","","","","",""
"","458","77","1850","0","stim","stop-signal","141","222912","0.0-2.2-32.2","stop_signal","","practice","<div class = shapebox><img class = stim src = /static/experiments/stop_signal/images/hourglass.png></img></div>","77,90","850","77","practice","55","<div class = stopbox><div class = centered-shape id = stop-signal></div><div class = centered-shape id = stop-signal-inner></div></div>","250","go","500","",""
"","-1","-1","500","0","fixation","poldrack-single-stim","142","223420","0.0-2.2-33.2","stop_signal","","practice","<div class = shapebox><div class = fixation>+</div></div>","none","500","","","","","","","","",""
"","402","90","1850","0","stim","stop-signal","143","225282","0.0-2.2-34.2","stop_signal","","practice","<div class = shapebox><img class = stim src = /static/experiments/stop_signal/images/square.png></img></div>","77,90","850","90","practice","56","<div class = stopbox><div class = centered-shape id = stop-signal></div><div class = centered-shape id = stop-signal-inner></div></div>","250","stop","500","",""
"","-1","-1","500","0","fixation","poldrack-single-stim","144","225792","0.0-2.2-35.2","stop_signal","","practice","<div class = shapebox><div class = fixation>+</div></div>","none","500","","","","","","","","",""
"","462","90","1850","0","stim","stop-signal","145","227649","0.0-2.2-36.2","stop_signal","","practice","<div class = shapebox><img class = stim src = /static/experiments/stop_signal/images/tear.png></img></div>","77,90","850","90","practice","57","<div class = stopbox><div class = centered-shape id = stop-signal></div><div class = centered-shape id = stop-signal-inner></div></div>","250","go","500","",""
"","-1","-1","500","0","fixation","poldrack-single-stim","146","228160","0.0-2.2-37.2","stop_signal","","practice","<div class = shapebox><div class = fixation>+</div></div>","none","500","","","","","","","","",""
"","541","77","1850","0","stim","stop-signal","147","230019","0.0-2.2-38.2","stop_signal","","practice","<div class = shapebox><img class = stim src = /static/experiments/stop_signal/images/pentagon.png></img></div>","77,90","850","77","practice","58","<div class = stopbox><div class = centered-shape id = stop-signal></div><div class = centered-shape id = stop-signal-inner></div></div>","250","go","500","",""
"","-1","-1","500","0","fixation","poldrack-single-stim","148","230530","0.0-2.2-39.2","stop_signal","","practice","<div class = shapebox><div class = fixation>+</div></div>","none","500","","","","","","","","",""
"","467","77","1850","0","stim","stop-signal","149","232386","0.0-2.2-40.2","stop_signal","","practice","<div class = shapebox><img class = stim src = /static/experiments/stop_signal/images/hourglass.png></img></div>","77,90","850","77","practice","59","<div class = stopbox><div class = centered-shape id = stop-signal></div><div class = centered-shape id = stop-signal-inner></div></div>","250","stop","500","",""
"<div class = centerbox><p class = block-text></p><p class = block-text><strong>Average reaction time:  490 ms. Accuracy for non-star trials: 93%</strong></p><p class = block-text>We will try another practice block. </p><p class = block-text><strong>Remember to try and withhold your response when you see a stop signal.</strong></p><p class = block-text>Press <strong>Enter</strong> to continue</p></div>","3634","13","3634","1000","feedback","poldrack-text","150","236022","0.0-2.3-0.3","stop_signal","","practice","","","","","","","","","","","",""
"","-1","-1","500","0","fixation","poldrack-single-stim","151","237538","0.0-2.3-1.3","stop_signal","","practice","<div class = shapebox><div class = fixation>+</div></div>","none","500","","","","","","","","",""
"","588","77","1850","0","stim","stop-signal","152","239400","0.0-2.3-2.3","stop_signal","","practice","<div class = shapebox><img class = stim src = /static/experiments/stop_signal/images/pentagon.png></img></div>","77,90","850","77","practice","60","<div class = stopbox><div class = centered-shape id = stop-signal></div><div class = centered-shape id = stop-signal-inner></div></div>","250","go","500","",""
"","-1","-1","500","0","fixation","poldrack-single-stim","153","239912","0.0-2.3-3.3","stop_signal","","practice","<div class = shapebox><div class = fixation>+</div></div>","none","500","","","","","","","","",""
"","509","90","1850","0","stim","stop-signal","154","241770","0.0-2.3-4.3","stop_signal","","practice","<div class = shapebox><img class = stim src = /static/experiments/stop_signal/images/square.png></img></div>","77,90","850","90","practice","61","<div class = stopbox><div class = centered-shape id = stop-signal></div><div class = centered-shape id = stop-signal-inner></div></div>","250","go","500","",""
"","-1","-1","500","0","fixation","poldrack-single-stim","155","242283","0.0-2.3-5.3","stop_signal","","practice","<div class = shapebox><div class = fixation>+</div></div>","none","500","","","","","","","","",""
"","433","77","1850","0","stim","stop-signal","156","244136","0.0-2.3-6.3","stop_signal","","practice","<div class = shapebox><img class = stim src = /static/experiments/stop_signal/images/hourglass.png></img></div>","77,90","850","77","practice","62","<div class = stopbox><div class = centered-shape id = stop-signal></div><div class = centered-shape id = stop-signal-inner></div></div>","250","go","500","",""
"","-1","-1","500","0","fixation","poldrack-single-stim","157","244649","0.0-2.3-7.3","stop_signal","","practice","<div class = shapebox><div class = fixation>+</div></div>","none","500","","","","","","","","",""
"","701","90","1850","0","stim","stop-signal","158","246503","0.0-2.3-8.3","stop_signal","","practice","<div class = shapebox><img class = stim src = /static/experiments/stop_signal/images/tear.png></img></div>","77,90","850","90","practice","63","<div class = stopbox><div class = centered-shape id = stop-signal></div><div class = centered-shape id = stop-signal-inner></div></div>","250","stop","500","",""
"","-1","-1","500","0","fixation","poldrack-single-stim","159","247014","0.0-2.3-9.3","stop_signal","","practice","<div class = shapebox><div class = fixation>+</div></div>","none","500","","","","","","","","",""
"","431","77","1850","0","stim","stop-signal","160","248876","0.0-2.3-10.3","stop_signal","","practice","<div class = shapebox><img class = stim src = /static/experiments/stop_signal/images/hourglass.png></img></div>","77,90","850","77","practice","64","<div class = stopbox><div class = centered-shape id = stop-signal></div><div class = centered-shape id = stop-signal-inner></div></div>","250","go","500","",""
"","-1","-1","500","0","fixation","poldrack-single-stim","161","249385","0.0-2.3-11.3","stop_signal","","practice","<div class = shapebox><div class = fixation>+</div></div>","none","500","","","","","","","","",""
"","403","77","1850","0","stim","stop-signal","162","251244","0.0-2.3-12.3","stop_signal","","practice","<div class = shapebox><img class = stim src = /static/experiments/stop_signal/images/tear.png></img></div>","77,90","850","90","practice","65","<div class = stopbox><div class = centered-shape id = stop-signal></div><div class = centered-shape id = stop-signal-inner></div></div>","250","go","500","",""
"","-1","-1","500","0","fixation","poldrack-single-stim","163","251756","0.0-2.3-13.3","stop_signal","","practice","<div class = shapebox><div class = fixation>+</div></div>","none","500","","","","","","","","",""
"","-1","-1","1850","0","stim","stop-signal","164","253608","0.0-2.3-14.3","stop_signal","","practice","<div class = shapebox><img class = stim src = /static/experiments/stop_signal/images/pentagon.png></img></div>","77,90","850","77","practice","66","<div class = stopbox><div class = centered-shape id = stop-signal></div><div class = centered-shape id = stop-signal-inner></div></div>","250","go","500","",""
"","-1","-1","500","0","fixation","poldrack-single-stim","165","254119","0.0-2.3-15.3","stop_signal","","practice","<div class = shapebox><div class = fixation>+</div></div>","none","500","","","","","","","","",""
"","622","90","1850","0","stim","stop-signal","166","255976","0.0-2.3-16.3","stop_signal","","practice","<div class = shapebox><img class = stim src = /static/experiments/stop_signal/images/tear.png></img></div>","77,90","850","90","practice","67","<div class = stopbox><div class = centered-shape id = stop-signal></div><div class = centered-shape id = stop-signal-inner></div></div>","250","stop","500","",""
"","-1","-1","500","0","fixation","poldrack-single-stim","167","256489","0.0-2.3-17.3","stop_signal","","practice","<div class = shapebox><div class = fixation>+</div></div>","none","500","","","","","","","","",""
"","491","90","1850","0","stim","stop-signal","168","258342","0.0-2.3-18.3","stop_signal","","practice","<div class = shapebox><img class = stim src = /static/experiments/stop_signal/images/square.png></img></div>","77,90","850","90","practice","68","<div class = stopbox><div class = centered-shape id = stop-signal></div><div class = centered-shape id = stop-signal-inner></div></div>","250","go","500","",""
"","-1","-1","500","0","fixation","poldrack-single-stim","169","258848","0.0-2.3-19.3","stop_signal","","practice","<div class = shapebox><div class = fixation>+</div></div>","none","500","","","","","","","","",""
"","382","90","1850","0","stim","stop-signal","170","260703","0.0-2.3-20.3","stop_signal","","practice","<div class = shapebox><img class = stim src = /static/experiments/stop_signal/images/tear.png></img></div>","77,90","850","90","practice","69","<div class = stopbox><div class = centered-shape id = stop-signal></div><div class = centered-shape id = stop-signal-inner></div></div>","250","go","500","",""
"","-1","-1","500","0","fixation","poldrack-single-stim","171","261214","0.0-2.3-21.3","stop_signal","","practice","<div class = shapebox><div class = fixation>+</div></div>","none","500","","","","","","","","",""
"","383","77","1850","0","stim","stop-signal","172","263073","0.0-2.3-22.3","stop_signal","","practice","<div class = shapebox><img class = stim src = /static/experiments/stop_signal/images/pentagon.png></img></div>","77,90","850","77","practice","70","<div class = stopbox><div class = centered-shape id = stop-signal></div><div class = centered-shape id = stop-signal-inner></div></div>","250","go","500","",""
"","-1","-1","500","0","fixation","poldrack-single-stim","173","263584","0.0-2.3-23.3","stop_signal","","practice","<div class = shapebox><div class = fixation>+</div></div>","none","500","","","","","","","","",""
"","510","77","1850","0","stim","stop-signal","174","265440","0.0-2.3-24.3","stop_signal","","practice","<div class = shapebox><img class = stim src = /static/experiments/stop_signal/images/hourglass.png></img></div>","77,90","850","77","practice","71","<div class = stopbox><div class = centered-shape id = stop-signal></div><div class = centered-shape id = stop-signal-inner></div></div>","250","stop","500","",""
"","-1","-1","500","0","fixation","poldrack-single-stim","175","265952","0.0-2.3-25.3","stop_signal","","practice","<div class = shapebox><div class = fixation>+</div></div>","none","500","","","","","","","","",""
"","478","77","1850","0","stim","stop-signal","176","267808","0.0-2.3-26.3","stop_signal","","practice","<div class = shapebox><img class = stim src = /static/experiments/stop_signal/images/pentagon.png></img></div>","77,90","850","77","practice","72","<div class = stopbox><div class = centered-shape id = stop-signal></div><div class = centered-shape id = stop-signal-inner></div></div>","250","stop","500","",""
"","-1","-1","500","0","fixation","poldrack-single-stim","177","268318","0.0-2.3-27.3","stop_signal","","practice","<div class = shapebox><div class = fixation>+</div></div>","none","500","","","","","","","","",""
"","479","77","1850","0","stim","stop-signal","178","270179","0.0-2.3-28.3","stop_signal","","practice","<div class = shapebox><img class = stim src = /static/experiments/stop_signal/images/pentagon.png></img></div>","77,90","850","77","practice","73","<div class = stopbox><div class = centered-shape id = stop-signal></div><div class = centered-shape id = stop-signal-inner></div></div>","250","stop","500","",""
"","-1","-1","500","0","fixation","poldrack-single-stim","179","270692","0.0-2.3-29.3","stop_signal","","practice","<div class = shapebox><div class = fixation>+</div></div>","none","500","","","","","","","","",""
"","482","90","1850","0","stim","stop-signal","180","272547","0.0-2.3-30.3","stop_signal","","practice","<div class = shapebox><img class = stim src = /static/experiments/stop_signal/images/square.png></img></div>","77,90","850","90","practice","74","<div class = stopbox><div class = centered-shape id = stop-signal></div><div class = centered-shape id = stop-signal-inner></div></div>","250","go","500","",""
"","-1","-1","500","0","fixation","poldrack-single-stim","181","273057","0.0-2.3-31.3","stop_signal","","practice","<div class = shapebox><div class = fixation>+</div></div>","none","500","","","","","","","","",""
"","533","90","1850","0","stim","stop-signal","182","274917","0.0-2.3-32.3","stop_signal","","practice","<div class = shapebox><img class = stim src = /static/experiments/stop_signal/images/tear.png></img></div>","77,90","850","90","practice","75","<div class = stopbox><div class = centered-shape id = stop-signal></div><div class = centered-shape id = stop-signal-inner></div></div>","250","go","500","",""
"","-1","-1","500","0","fixation","poldrack-single-stim","183","275430","0.0-2.3-33.3","stop_signal","","practice","<div class = shapebox><div class = fixation>+</div></div>","none","500","","","","","","","","",""
"","519","77","1850","0","stim","stop-signal","184","277290","0.0-2.3-34.3","stop_signal","","practice","<div class = shapebox><img class = stim src = /static/experiments/stop_signal/images/hourglass.png></img></div>","77,90","850","77","practice","76","<div class = stopbox><div class = centered-shape id = stop-signal></div><div class = centered-shape id = stop-signal-inner></div></div>","250","go","500","",""
"","-1","-1","500","0","fixation","poldrack-single-stim","185","277801","0.0-2.3-35.3","stop_signal","","practice","<div class = shapebox><div class = fixation>+</div></div>","none","500","","","","","","","","",""
"","579","90","1850","0","stim","stop-signal","186","279658","0.0-2.3-36.3","stop_signal","","practice","<div class = shapebox><img class = stim src = /static/experiments/stop_signal/images/square.png></img></div>","77,90","850","90","practice","77","<div class = stopbox><div class = centered-shape id = stop-signal></div><div class = centered-shape id = stop-signal-inner></div></div>","250","go","500","",""
"","-1","-1","500","0","fixation","poldrack-single-stim","187","280170","0.0-2.3-37.3","stop_signal","","practice","<div class = shapebox><div class = fixation>+</div></div>","none","500","","","","","","","","",""
"","418","90","1850","0","stim","stop-signal","188","282027","0.0-2.3-38.3","stop_signal","","practice","<div class = shapebox><img class = stim src = /static/experiments/stop_signal/images/hourglass.png></img></div>","77,90","850","77","practice","78","<div class = stopbox><div class = centered-shape id = stop-signal></div><div class = centered-shape id = stop-signal-inner></div></div>","250","stop","500","",""
"","-1","-1","500","0","fixation","poldrack-single-stim","189","282540","0.0-2.3-39.3","stop_signal","","practice","<div class = shapebox><div class = fixation>+</div></div>","none","500","","","","","","","","",""
"","617","90","1850","0","stim","stop-signal","190","284401","0.0-2.3-40.3","stop_signal","","practice","<div class = shapebox><img class = stim src = /static/experiments/stop_signal/images/square.png></img></div>","77,90","850","90","practice","79","<div class = stopbox><div class = centered-shape id = stop-signal></div><div class = centered-shape id = stop-signal-inner></div></div>","250","go","500","",""
"<div class = centerbox><p class = block-text></p><p class = block-text><strong>Average reaction time:  491 ms. Accuracy for non-star trials: 86%</strong></p><p class = block-text>We will try another practice block. </p><p class = block-text><strong>Remember to try and withhold your response when you see a stop signal.</strong></p><p class = block-text>Press <strong>Enter</strong> to continue</p></div>","2514","13","2514","1000","feedback","poldrack-text","191","286918","0.0-2.4-0.4","stop_signal","","practice","","","","","","","","","","","",""
"","-1","-1","500","0","fixation","poldrack-single-stim","192","288443","0.0-2.4-1.4","stop_signal","","practice","<div class = shapebox><div class = fixation>+</div></div>","none","500","","","","","","","","",""
"","514","90","1850","0","stim","stop-signal","193","290305","0.0-2.4-2.4","stop_signal","","practice","<div class = shapebox><img class = stim src = /static/experiments/stop_signal/images/tear.png></img></div>","77,90","850","90","practice","80","<div class = stopbox><div class = centered-shape id = stop-signal></div><div class = centered-shape id = stop-signal-inner></div></div>","250","go","500","",""
"","-1","-1","500","0","fixation","poldrack-single-stim","194","290817","0.0-2.4-3.4","stop_signal","","practice","<div class = shapebox><div class = fixation>+</div></div>","none","500","","","","","","","","",""
"","515","77","1850","0","stim","stop-signal","195","292675","0.0-2.4-4.4","stop_signal","","practice","<div class = shapebox><img class = stim src = /static/experiments/stop_signal/images/hourglass.png></img></div>","77,90","850","77","practice","81","<div class = stopbox><div class = centered-shape id = stop-signal></div><div class = centered-shape id = stop-signal-inner></div></div>","250","go","500","",""
"","-1","-1","500","0","fixation","poldrack-single-stim","196","293185","0.0-2.4-5.4","stop_signal","","practice","<div class = shapebox><div class = fixation>+</div></div>","none","500","","","","","","","","",""
"","524","77","1850","0","stim","stop-signal","197","295042","0.0-2.4-6.4","stop_signal","","practice","<div class = shapebox><img class = stim src = /static/experiments/stop_signal/images/pentagon.png></img></div>","77,90","850","77","practice","82","<div class = stopbox><div class = centered-shape id = stop-signal></div><div class = centered-shape id = stop-signal-inner></div></div>","250","go","500","",""
"","-1","-1","500","0","fixation","poldrack-single-stim","198","295554","0.0-2.4-7.4","stop_signal","","practice","<div class = shapebox><div class = fixation>+</div></div>","none","500","","","","","","","","",""
"","411","77","1850","0","stim","stop-signal","199","297414","0.0-2.4-8.4","stop_signal","","practice","<div class = shapebox><img class = stim src = /static/experiments/stop_signal/images/hourglass.png></img></div>","77,90","850","77","practice","83","<div class = stopbox><div class = centered-shape id = stop-signal></div><div class = centered-shape id = stop-signal-inner></div></div>","250","stop","500","",""
"","-1","-1","500","0","fixation","poldrack-single-stim","200","297925","0.0-2.4-9.4","stop_signal","","practice","<div class = shapebox><div class = fixation>+</div></div>","none","500","","","","","","","","",""
"","440","90","1850","0","stim","stop-signal","201","299782","0.0-2.4-10.4","stop_signal","","practice","<div class = shapebox><img class = stim src = /static/experiments/stop_signal/images/square.png></img></div>","77,90","850","90","practice","84","<div class = stopbox><div class = centered-shape id = stop-signal></div><div class = centered-shape id = stop-signal-inner></div></div>","250","go","500","",""
"","-1","-1","500","0","fixation","poldrack-single-stim","202","300294","0.0-2.4-11.4","stop_signal","","practice","<div class = shapebox><div class = fixation>+</div></div>","none","500","","","","","","","","",""
"","382","90","1850","0","stim","stop-signal","203","302159","0.0-2.4-12.4","stop_signal","","practice","<div class = shapebox><img class = stim src = /static/experiments/stop_signal/images/tear.png></img></div>","77,90","850","90","practice","85","<div class = stopbox><div class = centered-shape id = stop-signal></div><div class = centered-shape id = stop-signal-inner></div></div>","250","go","500","",""
"","-1","-1","500","0","fixation","poldrack-single-stim","204","302672","0.0-2.4-13.4","stop_signal","","practice","<div class = shapebox><div class = fixation>+</div></div>","none","500","","","","","","","","",""
"","388","77","1850","0","stim","stop-signal","205","304529","0.0-2.4-14.4","stop_signal","","practice","<div class = shapebox><img class = stim src = /static/experiments/stop_signal/images/pentagon.png></img></div>","77,90","850","77","practice","86","<div class = stopbox><div class = centered-shape id = stop-signal></div><div class = centered-shape id = stop-signal-inner></div></div>","250","go","500","",""
"","-1","-1","500","0","fixation","poldrack-single-stim","206","305039","0.0-2.4-15.4","stop_signal","","practice","<div class = shapebox><div class = fixation>+</div></div>","none","500","","","","","","","","",""
"","573","77","1850","0","stim","stop-signal","207","306896","0.0-2.4-16.4","stop_signal","","practice","<div class = shapebox><img class = stim src = /static/experiments/stop_signal/images/hourglass.png></img></div>","77,90","850","77","practice","87","<div class = stopbox><div class = centered-shape id = stop-signal></div><div class = centered-shape id = stop-signal-inner></div></div>","250","stop","500","",""
"","-1","-1","500","0","fixation","poldrack-single-stim","208","307406","0.0-2.4-17.4","stop_signal","","practice","<div class = shapebox><div class = fixation>+</div></div>","none","500","","","","","","","","",""
"","406","77","1850","0","stim","stop-signal","209","309262","0.0-2.4-18.4","stop_signal","","practice","<div class = shapebox><img class = stim src = /static/experiments/stop_signal/images/hourglass.png></img></div>","77,90","850","77","practice","88","<div class = stopbox><div class = centered-shape id = stop-signal></div><div class = centered-shape id = stop-signal-inner></div></div>","250","go","500","",""
"","-1","-1","500","0","fixation","poldrack-single-stim","210","309773","0.0-2.4-19.4","stop_signal","","practice","<div class = shapebox><div class = fixation>+</div></div>","none","500","","","","","","","","",""
"","367","90","1850","0","stim","stop-signal","211","311628","0.0-2.4-20.4","stop_signal","","practice","<div class = shapebox><img class = stim src = /static/experiments/stop_signal/images/tear.png></img></div>","77,90","850","90","practice","89","<div class = stopbox><div class = centered-shape id = stop-signal></div><div class = centered-shape id = stop-signal-inner></div></div>","250","go","500","",""
"","-1","-1","500","0","fixation","poldrack-single-stim","212","312137","0.0-2.4-21.4","stop_signal","","practice","<div class = shapebox><div class = fixation>+</div></div>","none","500","","","","","","","","",""
"","419","90","1850","0","stim","stop-signal","213","313995","0.0-2.4-22.4","stop_signal","","practice","<div class = shapebox><img class = stim src = /static/experiments/stop_signal/images/tear.png></img></div>","77,90","850","90","practice","90","<div class = stopbox><div class = centered-shape id = stop-signal></div><div class = centered-shape id = stop-signal-inner></div></div>","250","stop","500","",""
"","-1","-1","500","0","fixation","poldrack-single-stim","214","314506","0.0-2.4-23.4","stop_signal","","practice","<div class = shapebox><div class = fixation>+</div></div>","none","500","","","","","","","","",""
"","474","77","1850","0","stim","stop-signal","215","316365","0.0-2.4-24.4","stop_signal","","practice","<div class = shapebox><img class = stim src = /static/experiments/stop_signal/images/pentagon.png></img></div>","77,90","850","77","practice","91","<div class = stopbox><div class = centered-shape id = stop-signal></div><div class = centered-shape id = stop-signal-inner></div></div>","250","go","500","",""
"","-1","-1","500","0","fixation","poldrack-single-stim","216","316874","0.0-2.4-25.4","stop_signal","","practice","<div class = shapebox><div class = fixation>+</div></div>","none","500","","","","","","","","",""
"","547","77","1850","0","stim","stop-signal","217","318732","0.0-2.4-26.4","stop_signal","","practice","<div class = shapebox><img class = stim src = /static/experiments/stop_signal/images/hourglass.png></img></div>","77,90","850","77","practice","92","<div class = stopbox><div class = centered-shape id = stop-signal></div><div class = centered-shape id = stop-signal-inner></div></div>","250","go","500","",""
"","-1","-1","500","0","fixation","poldrack-single-stim","218","319244","0.0-2.4-27.4","stop_signal","","practice","<div class = shapebox><div class = fixation>+</div></div>","none","500","","","","","","","","",""
"","552","90","1850","0","stim","stop-signal","219","321103","0.0-2.4-28.4","stop_signal","","practice","<div class = shapebox><img class = stim src = /static/experiments/stop_signal/images/square.png></img></div>","77,90","850","90","practice","93","<div class = stopbox><div class = centered-shape id = stop-signal></div><div class = centered-shape id = stop-signal-inner></div></div>","250","go","500","",""
"","-1","-1","500","0","fixation","poldrack-single-stim","220","321615","0.0-2.4-29.4","stop_signal","","practice","<div class = shapebox><div class = fixation>+</div></div>","none","500","","","","","","","","",""
"","437","77","1850","0","stim","stop-signal","221","323474","0.0-2.4-30.4","stop_signal","","practice","<div class = shapebox><img class = stim src = /static/experiments/stop_signal/images/pentagon.png></img></div>","77,90","850","77","practice","94","<div class = stopbox><div class = centered-shape id = stop-signal></div><div class = centered-shape id = stop-signal-inner></div></div>","250","go","500","",""
"","-1","-1","500","0","fixation","poldrack-single-stim","222","323983","0.0-2.4-31.4","stop_signal","","practice","<div class = shapebox><div class = fixation>+</div></div>","none","500","","","","","","","","",""
"","509","90","1850","0","stim","stop-signal","223","325839","0.0-2.4-32.4","stop_signal","","practice","<div class = shapebox><img class = stim src = /static/experiments/stop_signal/images/square.png></img></div>","77,90","850","90","practice","95","<div class = stopbox><div class = centered-shape id = stop-signal></div><div class = centered-shape id = stop-signal-inner></div></div>","250","stop","500","",""
"","-1","-1","500","0","fixation","poldrack-single-stim","224","326351","0.0-2.4-33.4","stop_signal","","practice","<div class = shapebox><div class = fixation>+</div></div>","none","500","","","","","","","","",""
"","541","90","1850","0","stim","stop-signal","225","328208","0.0-2.4-34.4","stop_signal","","practice","<div class = shapebox><img class = stim src = /static/experiments/stop_signal/images/tear.png></img></div>","77,90","850","90","practice","96","<div class = stopbox><div class = centered-shape id = stop-signal></div><div class = centered-shape id = stop-signal-inner></div></div>","250","go","500","",""
"","-1","-1","500","0","fixation","poldrack-single-stim","226","328718","0.0-2.4-35.4","stop_signal","","practice","<div class = shapebox><div class = fixation>+</div></div>","none","500","","","","","","","","",""
"","359","77","1850","0","stim","stop-signal","227","330571","0.0-2.4-36.4","stop_signal","","practice","<div class = shapebox><img class = stim src = /static/experiments/stop_signal/images/pentagon.png></img></div>","77,90","850","77","practice","97","<div class = stopbox><div class = centered-shape id = stop-signal></div><div class = centered-shape id = stop-signal-inner></div></div>","250","stop","500","",""
"","-1","-1","500","0","fixation","poldrack-single-stim","228","331082","0.0-2.4-37.4","stop_signal","","practice","<div class = shapebox><div class = fixation>+</div></div>","none","500","","","","","","","","",""
"","490","90","1850","0","stim","stop-signal","229","332940","0.0-2.4-38.4","stop_signal","","practice","<div class = shapebox><img class = stim src = /static/experiments/stop_signal/images/square.png></img></div>","77,90","850","90","practice","98","<div class = stopbox><div class = centered-shape id = stop-signal></div><div class = centered-shape id = stop-signal-inner></div></div>","250","go","500","",""
"","-1","-1","500","0","fixation","poldrack-single-stim","230","333452","0.0-2.4-39.4","stop_signal","","practice","<div class = shapebox><div class = fixation>+</div></div>","none","500","","","","","","","","",""
"","536","90","1850","0","stim","stop-signal","231","335307","0.0-2.4-40.4","stop_signal","","practice","<div class = shapebox><img class = stim src = /static/experiments/stop_signal/images/square.png></img></div>","77,90","850","90","practice","99","<div class = stopbox><div class = centered-shape id = stop-signal></div><div class = centered-shape id = stop-signal-inner></div></div>","250","stop","500","",""
"<div class = centerbox><p class = block-text></p><p class = block-text><strong>Average reaction time:  482 ms. Accuracy for non-star trials: 100%</strong></p><p class = block-text>Done with practice. We will now begin the 12 test blocks. There will be a break after each block. Press <strong>enter</strong> to continue.</p></div>","9689","13","9689","1000","feedback","poldrack-text","232","344998","0.0-3.0","stop_signal","","practice","","","","","","","","","","","",""
"","-1","-1","500","0","fixation","poldrack-single-stim","233","346512","0.0-4.0","stop_signal","","test","<div class = centerbox><div class = fixation>+</div></div>","none","500","","","","","","","","",""
"","468","90","1850","0","stim","stop-signal","234","348373","0.0-5.0","stop_signal","","test","<div class = shapebox><img class = stim src = /static/experiments/stop_signal/images/square.png></img></div>","77,90","850","90","high","0","<div class = stopbox><div class = centered-shape id = stop-signal></div><div class = centered-shape id = stop-signal-inner></div></div>","250","stop","500","",""
"","-1","-1","500","0","fixation","poldrack-single-stim","235","348886","0.0-6.0","stop_signal","","test","<div class = centerbox><div class = fixation>+</div></div>","none","500","","","","","","","","",""
"","336","90","1850","0","stim","stop-signal","236","350742","0.0-7.0","stop_signal","","test","<div class = shapebox><img class = stim src = /static/experiments/stop_signal/images/square.png></img></div>","77,90","850","90","high","1","<div class = stopbox><div class = centered-shape id = stop-signal></div><div class = centered-shape id = stop-signal-inner></div></div>","200","stop","500","",""
"","-1","-1","500","0","fixation","poldrack-single-stim","237","351253","0.0-8.0","stop_signal","","test","<div class = centerbox><div class = fixation>+</div></div>","none","500","","","","","","","","",""
"","304","90","1850","0","stim","stop-signal","238","353114","0.0-9.0","stop_signal","","test","<div class = shapebox><img class = stim src = /static/experiments/stop_signal/images/square.png></img></div>","77,90","850","90","high","2","<div class = stopbox><div class = centered-shape id = stop-signal></div><div class = centered-shape id = stop-signal-inner></div></div>","150","go","500","",""
"","-1","-1","500","0","fixation","poldrack-single-stim","239","353623","0.0-10.0","stop_signal","","test","<div class = centerbox><div class = fixation>+</div></div>","none","500","","","","","","","","",""
"","470","77","1850","0","stim","stop-signal","240","355484","0.0-11.0","stop_signal","","test","<div class = shapebox><img class = stim src = /static/experiments/stop_signal/images/pentagon.png></img></div>","77,90","850","77","high","3","<div class = stopbox><div class = centered-shape id = stop-signal></div><div class = centered-shape id = stop-signal-inner></div></div>","150","go","500","",""
"","-1","-1","500","0","fixation","poldrack-single-stim","241","355993","0.0-12.0","stop_signal","","test","<div class = centerbox><div class = fixation>+</div></div>","none","500","","","","","","","","",""
"","437","90","1850","0","stim","stop-signal","242","357851","0.0-13.0","stop_signal","","test","<div class = shapebox><img class = stim src = /static/experiments/stop_signal/images/square.png></img></div>","77,90","850","90","high","4","<div class = stopbox><div class = centered-shape id = stop-signal></div><div class = centered-shape id = stop-signal-inner></div></div>","150","go","500","",""
"","-1","-1","500","0","fixation","poldrack-single-stim","243","358362","0.0-14.0","stop_signal","","test","<div class = centerbox><div class = fixation>+</div></div>","none","500","","","","","","","","",""
"","523","90","1850","0","stim","stop-signal","244","360220","0.0-15.0","stop_signal","","test","<div class = shapebox><img class = stim src = /static/experiments/stop_signal/images/tear.png></img></div>","77,90","850","90","high","5","<div class = stopbox><div class = centered-shape id = stop-signal></div><div class = centered-shape id = stop-signal-inner></div></div>","150","stop","500","",""
"","-1","-1","500","0","fixation","poldrack-single-stim","245","360731","0.0-16.0","stop_signal","","test","<div class = centerbox><div class = fixation>+</div></div>","none","500","","","","","","","","",""
"","393","77","1850","0","stim","stop-signal","246","362591","0.0-17.0","stop_signal","","test","<div class = shapebox><img class = stim src = /static/experiments/stop_signal/images/hourglass.png></img></div>","77,90","850","77","high","6","<div class = stopbox><div class = centered-shape id = stop-signal></div><div class = centered-shape id = stop-signal-inner></div></div>","100","go","500","",""
"","-1","-1","500","0","fixation","poldrack-single-stim","247","363104","0.0-18.0","stop_signal","","test","<div class = centerbox><div class = fixation>+</div></div>","none","500","","","","","","","","",""
"","478","77","1850","0","stim","stop-signal","248","364963","0.0-19.0","stop_signal","","test","<div class = shapebox><img class = stim src = /static/experiments/stop_signal/images/pentagon.png></img></div>","77,90","850","77","high","7","<div class = stopbox><div class = centered-shape id = stop-signal></div><div class = centered-shape id = stop-signal-inner></div></div>","100","stop","500","",""
"","-1","-1","500","0","fixation","poldrack-single-stim","249","365473","0.0-20.0","stop_signal","","test","<div class = centerbox><div class = fixation>+</div></div>","none","500","","","","","","","","",""
"","427","90","1850","0","stim","stop-signal","250","367328","0.0-21.0","stop_signal","","test","<div class = shapebox><img class = stim src = /static/experiments/stop_signal/images/square.png></img></div>","77,90","850","90","high","8","<div class = stopbox><div class = centered-shape id = stop-signal></div><div class = centered-shape id = stop-signal-inner></div></div>","50","go","500","",""
"","-1","-1","500","0","fixation","poldrack-single-stim","251","367841","0.0-22.0","stop_signal","","test","<div class = centerbox><div class = fixation>+</div></div>","none","500","","","","","","","","",""
"","468","77","1850","0","stim","stop-signal","252","369699","0.0-23.0","stop_signal","","test","<div class = shapebox><img class = stim src = /static/experiments/stop_signal/images/pentagon.png></img></div>","77,90","850","77","high","9","<div class = stopbox><div class = centered-shape id = stop-signal></div><div class = centered-shape id = stop-signal-inner></div></div>","50","stop","500","",""
"","-1","-1","500","0","fixation","poldrack-single-stim","253","370212","0.0-24.0","stop_signal","","test","<div class = centerbox><div class = fixation>+</div></div>","none","500","","","","","","","","",""
"","529","77","1850","0","stim","stop-signal","254","372067","0.0-25.0","stop_signal","","test","<div class = shapebox><img class = stim src = /static/experiments/stop_signal/images/hourglass.png></img></div>","77,90","850","77","high","10","<div class = stopbox><div class = centered-shape id = stop-signal></div><div class = centered-shape id = stop-signal-inner></div></div>","0","stop","500","",""
"","-1","-1","500","0","fixation","poldrack-single-stim","255","372581","0.0-26.0","stop_signal","","test","<div class = centerbox><div class = fixation>+</div></div>","none","500","","","","","","","","",""
"","496","90","1850","0","stim","stop-signal","256","374436","0.0-27.0","stop_signal","","test","<div class = shapebox><img class = stim src = /static/experiments/stop_signal/images/tear.png></img></div>","77,90","850","90","high","11","<div class = stopbox><div class = centered-shape id = stop-signal></div><div class = centered-shape id = stop-signal-inner></div></div>","0","go","500","",""
"","-1","-1","500","0","fixation","poldrack-single-stim","257","374947","0.0-28.0","stop_signal","","test","<div class = centerbox><div class = fixation>+</div></div>","none","500","","","","","","","","",""
"","457","90","1850","0","stim","stop-signal","258","376806","0.0-29.0","stop_signal","","test","<div class = shapebox><img class = stim src = /static/experiments/stop_signal/images/tear.png></img></div>","77,90","850","90","high","12","<div class = stopbox><div class = centered-shape id = stop-signal></div><div class = centered-shape id = stop-signal-inner></div></div>","0","go","500","",""
"","-1","-1","500","0","fixation","poldrack-single-stim","259","377316","0.0-30.0","stop_signal","","test","<div class = centerbox><div class = fixation>+</div></div>","none","500","","","","","","","","",""
"","417","77","1850","0","stim","stop-signal","260","379171","0.0-31.0","stop_signal","","test","<div class = shapebox><img class = stim src = /static/experiments/stop_signal/images/hourglass.png></img></div>","77,90","850","77","high","13","<div class = stopbox><div class = centered-shape id = stop-signal></div><div class = centered-shape id = stop-signal-inner></div></div>","0","go","500","",""
"","-1","-1","500","0","fixation","poldrack-single-stim","261","379681","0.0-32.0","stop_signal","","test","<div class = centerbox><div class = fixation>+</div></div>","none","500","","","","","","","","",""
"","483","77","1850","0","stim","stop-signal","262","381537","0.0-33.0","stop_signal","","test","<div class = shapebox><img class = stim src = /static/experiments/stop_signal/images/pentagon.png></img></div>","77,90","850","77","high","14","<div class = stopbox><div class = centered-shape id = stop-signal></div><div class = centered-shape id = stop-signal-inner></div></div>","0","go","500","",""
"","-1","-1","500","0","fixation","poldrack-single-stim","263","382048","0.0-34.0","stop_signal","","test","<div class = centerbox><div class = fixation>+</div></div>","none","500","","","","","","","","",""
"","421","77","1850","0","stim","stop-signal","264","383910","0.0-35.0","stop_signal","","test","<div class = shapebox><img class = stim src = /static/experiments/stop_signal/images/hourglass.png></img></div>","77,90","850","77","high","15","<div class = stopbox><div class = centered-shape id = stop-signal></div><div class = centered-shape id = stop-signal-inner></div></div>","0","go","500","",""
"","-1","-1","500","0","fixation","poldrack-single-stim","265","384423","0.0-36.0","stop_signal","","test","<div class = centerbox><div class = fixation>+</div></div>","none","500","","","","","","","","",""
"","462","77","1850","0","stim","stop-signal","266","386282","0.0-37.0","stop_signal","","test","<div class = shapebox><img class = stim src = /static/experiments/stop_signal/images/pentagon.png></img></div>","77,90","850","77","high","16","<div class = stopbox><div class = centered-shape id = stop-signal></div><div class = centered-shape id = stop-signal-inner></div></div>","0","stop","500","",""
"","-1","-1","500","0","fixation","poldrack-single-stim","267","386794","0.0-38.0","stop_signal","","test","<div class = centerbox><div class = fixation>+</div></div>","none","500","","","","","","","","",""
"","323","90","1850","0","stim","stop-signal","268","388653","0.0-39.0","stop_signal","","test","<div class = shapebox><img class = stim src = /static/experiments/stop_signal/images/tear.png></img></div>","77,90","850","90","high","17","<div class = stopbox><div class = centered-shape id = stop-signal></div><div class = centered-shape id = stop-signal-inner></div></div>","0","go","500","",""
"","-1","-1","500","0","fixation","poldrack-single-stim","269","389165","0.0-40.0","stop_signal","","test","<div class = centerbox><div class = fixation>+</div></div>","none","500","","","","","","","","",""
"","472","90","1850","0","stim","stop-signal","270","391021","0.0-41.0","stop_signal","","test","<div class = shapebox><img class = stim src = /static/experiments/stop_signal/images/square.png></img></div>","77,90","850","90","high","18","<div class = stopbox><div class = centered-shape id = stop-signal></div><div class = centered-shape id = stop-signal-inner></div></div>","0","go","500","",""
"","-1","-1","500","0","fixation","poldrack-single-stim","271","391533","0.0-42.0","stop_signal","","test","<div class = centerbox><div class = fixation>+</div></div>","none","500","","","","","","","","",""
"","536","90","1850","0","stim","stop-signal","272","393399","0.0-43.0","stop_signal","","test","<div class = shapebox><img class = stim src = /static/experiments/stop_signal/images/square.png></img></div>","77,90","850","90","high","19","<div class = stopbox><div class = centered-shape id = stop-signal></div><div class = centered-shape id = stop-signal-inner></div></div>","0","go","500","",""
"","-1","-1","500","0","fixation","poldrack-single-stim","273","393912","0.0-44.0","stop_signal","","test","<div class = centerbox><div class = fixation>+</div></div>","none","500","","","","","","","","",""
"","341","77","1850","0","stim","stop-signal","274","395768","0.0-45.0","stop_signal","","test","<div class = shapebox><img class = stim src = /static/experiments/stop_signal/images/pentagon.png></img></div>","77,90","850","77","high","20","<div class = stopbox><div class = centered-shape id = stop-signal></div><div class = centered-shape id = stop-signal-inner></div></div>","0","stop","500","",""
"","-1","-1","500","0","fixation","poldrack-single-stim","275","396279","0.0-46.0","stop_signal","","test","<div class = centerbox><div class = fixation>+</div></div>","none","500","","","","","","","","",""
"","326","77","1850","0","stim","stop-signal","276","398136","0.0-47.0","stop_signal","","test","<div class = shapebox><img class = stim src = /static/experiments/stop_signal/images/pentagon.png></img></div>","77,90","850","77","high","21","<div class = stopbox><div class = centered-shape id = stop-signal></div><div class = centered-shape id = stop-signal-inner></div></div>","0","go","500","",""
"","-1","-1","500","0","fixation","poldrack-single-stim","277","398648","0.0-48.0","stop_signal","","test","<div class = centerbox><div class = fixation>+</div></div>","none","500","","","","","","","","",""
"","525","77","1850","0","stim","stop-signal","278","400502","0.0-49.0","stop_signal","","test","<div class = shapebox><img class = stim src = /static/experiments/stop_signal/images/hourglass.png></img></div>","77,90","850","77","high","22","<div class = stopbox><div class = centered-shape id = stop-signal></div><div class = centered-shape id = stop-signal-inner></div></div>","0","go","500","",""
"","-1","-1","500","0","fixation","poldrack-single-stim","279","401011","0.0-50.0","stop_signal","","test","<div class = centerbox><div class = fixation>+</div></div>","none","500","","","","","","","","",""
"","523","77","1850","0","stim","stop-signal","280","402870","0.0-51.0","stop_signal","","test","<div class = shapebox><img class = stim src = /static/experiments/stop_signal/images/pentagon.png></img></div>","77,90","850","77","high","23","<div class = stopbox><div class = centered-shape id = stop-signal></div><div class = centered-shape id = stop-signal-inner></div></div>","0","stop","500","",""
"","-1","-1","500","0","fixation","poldrack-single-stim","281","403382","0.0-52.0","stop_signal","","test","<div class = centerbox><div class = fixation>+</div></div>","none","500","","","","","","","","",""
"","367","90","1850","0","stim","stop-signal","282","405241","0.0-53.0","stop_signal","","test","<div class = shapebox><img class = stim src = /static/experiments/stop_signal/images/tear.png></img></div>","77,90","850","90","high","24","<div class = stopbox><div class = centered-shape id = stop-signal></div><div class = centered-shape id = stop-signal-inner></div></div>","0","go","500","",""
"","-1","-1","500","0","fixation","poldrack-single-stim","283","405754","0.0-54.0","stop_signal","","test","<div class = centerbox><div class = fixation>+</div></div>","none","500","","","","","","","","",""
"","427","90","1850","0","stim","stop-signal","284","407614","0.0-55.0","stop_signal","","test","<div class = shapebox><img class = stim src = /static/experiments/stop_signal/images/tear.png></img></div>","77,90","850","90","high","25","<div class = stopbox><div class = centered-shape id = stop-signal></div><div class = centered-shape id = stop-signal-inner></div></div>","0","stop","500","",""
"","-1","-1","500","0","fixation","poldrack-single-stim","285","408125","0.0-56.0","stop_signal","","test","<div class = centerbox><div class = fixation>+</div></div>","none","500","","","","","","","","",""
"","407","90","1850","0","stim","stop-signal","286","409985","0.0-57.0","stop_signal","","test","<div class = shapebox><img class = stim src = /static/experiments/stop_signal/images/tear.png></img></div>","77,90","850","90","high","26","<div class = stopbox><div class = centered-shape id = stop-signal></div><div class = centered-shape id = stop-signal-inner></div></div>","0","go","500","",""
"","-1","-1","500","0","fixation","poldrack-single-stim","287","410496","0.0-58.0","stop_signal","","test","<div class = centerbox><div class = fixation>+</div></div>","none","500","","","","","","","","",""
"","460","77","1850","0","stim","stop-signal","288","412355","0.0-59.0","stop_signal","","test","<div class = shapebox><img class = stim src = /static/experiments/stop_signal/images/pentagon.png></img></div>","77,90","850","77","high","27","<div class = stopbox><div class = centered-shape id = stop-signal></div><div class = centered-shape id = stop-signal-inner></div></div>","0","stop","500","",""
"","-1","-1","500","0","fixation","poldrack-single-stim","289","412867","0.0-60.0","stop_signal","","test","<div class = centerbox><div class = fixation>+</div></div>","none","500","","","","","","","","",""
"","482","90","1850","0","stim","stop-signal","290","414726","0.0-61.0","stop_signal","","test","<div class = shapebox><img class = stim src = /static/experiments/stop_signal/images/square.png></img></div>","77,90","850","90","high","28","<div class = stopbox><div class = centered-shape id = stop-signal></div><div class = centered-shape id = stop-signal-inner></div></div>","0","go","500","",""
"","-1","-1","500","0","fixation","poldrack-single-stim","291","415239","0.0-62.0","stop_signal","","test","<div class = centerbox><div class = fixation>+</div></div>","none","500","","","","","","","","",""
"","630","90","1850","0","stim","stop-signal","292","417094","0.0-63.0","stop_signal","","test","<div class = shapebox><img class = stim src = /static/experiments/stop_signal/images/square.png></img></div>","77,90","850","90","high","29","<div class = stopbox><div class = centered-shape id = stop-signal></div><div class = centered-shape id = stop-signal-inner></div></div>","0","stop","500","",""
"","-1","-1","500","0","fixation","poldrack-single-stim","293","417606","0.0-64.0","stop_signal","","test","<div class = centerbox><div class = fixation>+</div></div>","none","500","","","","","","","","",""
"","487","77","1850","0","stim","stop-signal","294","419464","0.0-65.0","stop_signal","","test","<div class = shapebox><img class = stim src = /static/experiments/stop_signal/images/hourglass.png></img></div>","77,90","850","77","high","30","<div class = stopbox><div class = centered-shape id = stop-signal></div><div class = centered-shape id = stop-signal-inner></div></div>","0","stop","500","",""
"","-1","-1","500","0","fixation","poldrack-single-stim","295","419975","0.0-66.0","stop_signal","","test","<div class = centerbox><div class = fixation>+</div></div>","none","500","","","","","","","","",""
"","494","77","1850","0","stim","stop-signal","296","421832","0.0-67.0","stop_signal","","test","<div class = shapebox><img class = stim src = /static/experiments/stop_signal/images/pentagon.png></img></div>","77,90","850","77","high","31","<div class = stopbox><div class = centered-shape id = stop-signal></div><div class = centered-shape id = stop-signal-inner></div></div>","0","go","500","",""
"","-1","-1","500","0","fixation","poldrack-single-stim","297","422345","0.0-68.0","stop_signal","","test","<div class = centerbox><div class = fixation>+</div></div>","none","500","","","","","","","","",""
"","468","90","1850","0","stim","stop-signal","298","424201","0.0-69.0","stop_signal","","test","<div class = shapebox><img class = stim src = /static/experiments/stop_signal/images/tear.png></img></div>","77,90","850","90","high","32","<div class = stopbox><div class = centered-shape id = stop-signal></div><div class = centered-shape id = stop-signal-inner></div></div>","0","stop","500","",""
"","-1","-1","500","0","fixation","poldrack-single-stim","299","424713","0.0-70.0","stop_signal","","test","<div class = centerbox><div class = fixation>+</div></div>","none","500","","","","","","","","",""
"","668","77","1850","0","stim","stop-signal","300","426567","0.0-71.0","stop_signal","","test","<div class = shapebox><img class = stim src = /static/experiments/stop_signal/images/hourglass.png></img></div>","77,90","850","77","high","33","<div class = stopbox><div class = centered-shape id = stop-signal></div><div class = centered-shape id = stop-signal-inner></div></div>","0","go","500","",""
"","-1","-1","500","0","fixation","poldrack-single-stim","301","427079","0.0-72.0","stop_signal","","test","<div class = centerbox><div class = fixation>+</div></div>","none","500","","","","","","","","",""
"","-1","-1","1850","0","stim","stop-signal","302","428938","0.0-73.0","stop_signal","","test","<div class = shapebox><img class = stim src = /static/experiments/stop_signal/images/square.png></img></div>","77,90","850","90","high","34","<div class = stopbox><div class = centered-shape id = stop-signal></div><div class = centered-shape id = stop-signal-inner></div></div>","0","stop","500","",""
"","-1","-1","500","0","fixation","poldrack-single-stim","303","429450","0.0-74.0","stop_signal","","test","<div class = centerbox><div class = fixation>+</div></div>","none","500","","","","","","","","",""
"","435","77","1850","0","stim","stop-signal","304","431310","0.0-75.0","stop_signal","","test","<div class = shapebox><img class = stim src = /static/experiments/stop_signal/images/hourglass.png></img></div>","77,90","850","77","high","35","<div class = stopbox><div class = centered-shape id = stop-signal></div><div class = centered-shape id = stop-signal-inner></div></div>","50","go","500","",""
"","-1","-1","500","0","fixation","poldrack-single-stim","305","431821","0.0-76.0","stop_signal","","test","<div class = centerbox><div class = fixation>+</div></div>","none","500","","","","","","","","",""
"","592","90","1850","0","stim","stop-signal","306","433680","0.0-77.0","stop_signal","","test","<div class = shapebox><img class = stim src = /static/experiments/stop_signal/images/square.png></img></div>","77,90","850","90","high","36","<div class = stopbox><div class = centered-shape id = stop-signal></div><div class = centered-shape id = stop-signal-inner></div></div>","50","stop","500","",""
"","-1","-1","500","0","fixation","poldrack-single-stim","307","434193","0.0-78.0","stop_signal","","test","<div class = centerbox><div class = fixation>+</div></div>","none","500","","","","","","","","",""
"","436","90","1850","0","stim","stop-signal","308","436049","0.0-79.0","stop_signal","","test","<div class = shapebox><img class = stim src = /static/experiments/stop_signal/images/tear.png></img></div>","77,90","850","90","high","37","<div class = stopbox><div class = centered-shape id = stop-signal></div><div class = centered-shape id = stop-signal-inner></div></div>","0","go","500","",""
"","-1","-1","500","0","fixation","poldrack-single-stim","309","436559","0.0-80.0","stop_signal","","test","<div class = centerbox><div class = fixation>+</div></div>","none","500","","","","","","","","",""
"","493","77","1850","0","stim","stop-signal","310","438417","0.0-81.0","stop_signal","","test","<div class = shapebox><img class = stim src = /static/experiments/stop_signal/images/hourglass.png></img></div>","77,90","850","77","high","38","<div class = stopbox><div class = centered-shape id = stop-signal></div><div class = centered-shape id = stop-signal-inner></div></div>","0","go","500","",""
"","-1","-1","500","0","fixation","poldrack-single-stim","311","438928","0.0-82.0","stop_signal","","test","<div class = centerbox><div class = fixation>+</div></div>","none","500","","","","","","","","",""
"","684","77","1850","0","stim","stop-signal","312","440789","0.0-83.0","stop_signal","","test","<div class = shapebox><img class = stim src = /static/experiments/stop_signal/images/hourglass.png></img></div>","77,90","850","77","high","39","<div class = stopbox><div class = centered-shape id = stop-signal></div><div class = centered-shape id = stop-signal-inner></div></div>","0","stop","500","",""
"","-1","-1","500","0","fixation","poldrack-single-stim","313","441298","0.0-84.0","stop_signal","","test","<div class = centerbox><div class = fixation>+</div></div>","none","500","","","","","","","","",""
"","387","77","1850","0","stim","stop-signal","314","443155","0.0-85.0","stop_signal","","test","<div class = shapebox><img class = stim src = /static/experiments/stop_signal/images/hourglass.png></img></div>","77,90","850","77","high","40","<div class = stopbox><div class = centered-shape id = stop-signal></div><div class = centered-shape id = stop-signal-inner></div></div>","0","go","500","",""
"","-1","-1","500","0","fixation","poldrack-single-stim","315","443668","0.0-86.0","stop_signal","","test","<div class = centerbox><div class = fixation>+</div></div>","none","500","","","","","","","","",""
"","473","77","1850","0","stim","stop-signal","316","445528","0.0-87.0","stop_signal","","test","<div class = shapebox><img class = stim src = /static/experiments/stop_signal/images/pentagon.png></img></div>","77,90","850","77","high","41","<div class = stopbox><div class = centered-shape id = stop-signal></div><div class = centered-shape id = stop-signal-inner></div></div>","0","go","500","",""
"","-1","-1","500","0","fixation","poldrack-single-stim","317","446037","0.0-88.0","stop_signal","","test","<div class = centerbox><div class = fixation>+</div></div>","none","500","","","","","","","","",""
"","496","90","1850","0","stim","stop-signal","318","447898","0.0-89.0","stop_signal","","test","<div class = shapebox><img class = stim src = /static/experiments/stop_signal/images/tear.png></img></div>","77,90","850","90","high","42","<div class = stopbox><div class = centered-shape id = stop-signal></div><div class = centered-shape id = stop-signal-inner></div></div>","0","go","500","",""
"","-1","-1","500","0","fixation","poldrack-single-stim","319","448409","0.0-90.0","stop_signal","","test","<div class = centerbox><div class = fixation>+</div></div>","none","500","","","","","","","","",""
