"text","rt","key_press","block_duration","timing_post_trial","trial_id","trial_type","trial_index","time_elapsed","internal_node_id","exp_id","view_history","exp_stage","stimulus","possible_responses","stim_duration","correct_response","condition","trial_num","SS_stimulus","SS_delay","SS_trial_type","SS_duration","responses","credit_var"
"<div class = centerbox><p class = center-block-text>Welcome to the experiment. This experiment will take about 30 minutes. Press <strong>enter</strong> to begin.</p></div>","2738","13","2738","0","instruction","poldrack-text","0","2740","0.0-0.0-0.0","stop_signal","","","","","","","","","","","","","",""
"","22514","","","","instruction","poldrack-instructions","1","25255","0.0-0.0-1.0","stop_signal","[{""page_index"":0,""viewing_time"":5722},{""page_index"":1,""viewing_time"":16792}]","","","","","","","","","","","","",""
"<div class = centerbox><p class = block-text>We will now start with a practice session. In this practice  concentrate on responding quickly and accurately to each shape. Press <strong>enter</strong> to continue.</p></div>","1588","13","1588","1000","feedback","poldrack-text","2","27860","0.0-1.0-0.0","stop_signal","","practice","","","","","","","","","","","",""
"","-1","-1","500","0","fixation","poldrack-single-stim","3","29381","0.0-1.0-1.0","stop_signal","","practice","<div class = shapebox><div class = fixation>+</div></div>","none","500","","","","","","","","",""
"","757","77","1850","0","stim","poldrack-single-stim","4","31244","0.0-1.0-2.0","stop_signal","","NoSS_practice","<div class = shapebox><img class = stim src = /static/experiments/stop_signal/images/tear.png></img></div>","77,90","850","77","NoSS_practice","0","","","","","",""
"","-1","-1","500","0","fixation","poldrack-single-stim","5","31751","0.0-1.0-3.0","stop_signal","","practice","<div class = shapebox><div class = fixation>+</div></div>","none","500","","","","","","","","",""
"","660","90","1850","0","stim","poldrack-single-stim","6","33611","0.0-1.0-4.0","stop_signal","","NoSS_practice","<div class = shapebox><img class = stim src = /static/experiments/stop_signal/images/hourglass.png></img></div>","77,90","850","90","NoSS_practice","1","","","","","",""
"","-1","-1","500","0","fixation","poldrack-single-stim","7","34116","0.0-1.0-5.0","stop_signal","","practice","<div class = shapebox><div class = fixation>+</div></div>","none","500","","","","","","","","",""
"","590","77","1850","0","stim","poldrack-single-stim","8","35975","0.0-1.0-6.0","stop_signal","","NoSS_practice","<div class = shapebox><img class = stim src = /static/experiments/stop_signal/images/tear.png></img></div>","77,90","850","77","NoSS_practice","2","","","","","",""
"","-1","-1","500","0","fixation","poldrack-single-stim","9","36489","0.0-1.0-7.0","stop_signal","","practice","<div class = shapebox><div class = fixation>+</div></div>","none","500","","","","","","","","",""
"","561","90","1850","0","stim","poldrack-single-stim","10","38347","0.0-1.0-8.0","stop_signal","","NoSS_practice","<div class = shapebox><img class = stim src = /static/experiments/stop_signal/images/pentagon.png></img></div>","77,90","850","90","NoSS_practice","3","","","","","",""
"","-1","-1","500","0","fixation","poldrack-single-stim","11","38859","0.0-1.0-9.0","stop_signal","","practice","<div class = shapebox><div class = fixation>+</div></div>","none","500","","","","","","","","",""
"","424","77","1850","0","stim","poldrack-single-stim","12","40720","0.0-1.0-10.0","stop_signal","","NoSS_practice","<div class = shapebox><img class = stim src = /static/experiments/stop_signal/images/square.png></img></div>","77,90","850","77","NoSS_practice","4","","","","","",""
"","-1","-1","500","0","fixation","poldrack-single-stim","13","41229","0.0-1.0-11.0","stop_signal","","practice","<div class = shapebox><div class = fixation>+</div></div>","none","500","","","","","","","","",""
"","556","90","1850","0","stim","poldrack-single-stim","14","43081","0.0-1.0-12.0","stop_signal","","NoSS_practice","<div class = shapebox><img class = stim src = /static/experiments/stop_signal/images/hourglass.png></img></div>","77,90","850","90","NoSS_practice","5","","","","","",""
"","-1","-1","500","0","fixation","poldrack-single-stim","15","43596","0.0-1.0-13.0","stop_signal","","practice","<div class = shapebox><div class = fixation>+</div></div>","none","500","","","","","","","","",""
"","454","90","1850","0","stim","poldrack-single-stim","16","45459","0.0-1.0-14.0","stop_signal","","NoSS_practice","<div class = shapebox><img class = stim src = /static/experiments/stop_signal/images/pentagon.png></img></div>","77,90","850","90","NoSS_practice","6","","","","","",""
"","-1","-1","500","0","fixation","poldrack-single-stim","17","45973","0.0-1.0-15.0","stop_signal","","practice","<div class = shapebox><div class = fixation>+</div></div>","none","500","","","","","","","","",""
"","501","90","1850","0","stim","poldrack-single-stim","18","47834","0.0-1.0-16.0","stop_signal","","NoSS_practice","<div class = shapebox><img class = stim src = /static/experiments/stop_signal/images/pentagon.png></img></div>","77,90","850","90","NoSS_practice","7","","","","","",""
"","-1","-1","500","0","fixation","poldrack-single-stim","19","48349","0.0-1.0-17.0","stop_signal","","practice","<div class = shapebox><div class = fixation>+</div></div>","none","500","","","","","","","","",""
"","349","77","1850","0","stim","poldrack-single-stim","20","50201","0.0-1.0-18.0","stop_signal","","NoSS_practice","<div class = shapebox><img class = stim src = /static/experiments/stop_signal/images/square.png></img></div>","77,90","850","77","NoSS_practice","8","","","","","",""
"","-1","-1","500","0","fixation","poldrack-single-stim","21","50707","0.0-1.0-19.0","stop_signal","","practice","<div class = shapebox><div class = fixation>+</div></div>","none","500","","","","","","","","",""
"","343","77","1850","0","stim","poldrack-single-stim","22","52568","0.0-1.0-20.0","stop_signal","","NoSS_practice","<div class = shapebox><img class = stim src = /static/experiments/stop_signal/images/square.png></img></div>","77,90","850","77","NoSS_practice","9","","","","","",""
"","-1","-1","500","0","fixation","poldrack-single-stim","23","53078","0.0-1.0-21.0","stop_signal","","practice","<div class = shapebox><div class = fixation>+</div></div>","none","500","","","","","","","","",""
"","395","90","1850","0","stim","poldrack-single-stim","24","54937","0.0-1.0-22.0","stop_signal","","NoSS_practice","<div class = shapebox><img class = stim src = /static/experiments/stop_signal/images/hourglass.png></img></div>","77,90","850","90","NoSS_practice","10","","","","","",""
"","-1","-1","500","0","fixation","poldrack-single-stim","25","55441","0.0-1.0-23.0","stop_signal","","practice","<div class = shapebox><div class = fixation>+</div></div>","none","500","","","","","","","","",""
"","480","90","1850","0","stim","poldrack-single-stim","26","57296","0.0-1.0-24.0","stop_signal","","NoSS_practice","<div class = shapebox><img class = stim src = /static/experiments/stop_signal/images/tear.png></img></div>","77,90","850","77","NoSS_practice","11","","","","","",""
"<div class = centerbox><p class = block-text></p><p class = block-text><strong>Average reaction time:  491 ms. Accuracy for non-star trials: 92%</strong></p><p class = block-text>For the rest of the experiment, on some proportion of trials a black ""stop signal"" in the shape of a star will appear around the shape. When this happens please try your best to stop your response and press nothing on that trial.</p><p class = block-text>The star will appear around the same time or shortly after the shape appears. Because of this, you will not always be able to successfully stop when a star appears. However, if you continue to try very hard to stop when a star appears, you will be able to stop sometimes but not always.</p><p class = block-text><strong>Please balance the requirement to respond quickly and accurately to the shapes while trying very hard to stop to the stop signal.</strong></p><p class = block-text>Press <strong>Enter</strong> to continue</p></div>","1250","13","1250","1000","feedback","poldrack-text","27","58563","0.0-2.0-0.0","stop_signal","","practice","","","","","","","","","","","",""
"","-1","-1","500","0","fixation","poldrack-single-stim","28","60077","0.0-2.0-1.0","stop_signal","","practice","<div class = shapebox><div class = fixation>+</div></div>","none","500","","","","","","","","",""
"","444","77","1850","0","stim","stop-signal","29","61944","0.0-2.0-2.0","stop_signal","","practice","<div class = shapebox><img class = stim src = /static/experiments/stop_signal/images/tear.png></img></div>","77,90","850","77","practice","0","<div class = stopbox><div class = centered-shape id = stop-signal></div><div class = centered-shape id = stop-signal-inner></div></div>","250","go","500","",""
"","-1","-1","500","0","fixation","poldrack-single-stim","30","62456","0.0-2.0-3.0","stop_signal","","practice","<div class = shapebox><div class = fixation>+</div></div>","none","500","","","","","","","","",""
"","539","90","1850","0","stim","stop-signal","31","64318","0.0-2.0-4.0","stop_signal","","practice","<div class = shapebox><img class = stim src = /static/experiments/stop_signal/images/pentagon.png></img></div>","77,90","850","90","practice","1","<div class = stopbox><div class = centered-shape id = stop-signal></div><div class = centered-shape id = stop-signal-inner></div></div>","250","go","500","",""
"","-1","-1","500","0","fixation","poldrack-single-stim","32","64824","0.0-2.0-5.0","stop_signal","","practice","<div class = shapebox><div class = fixation>+</div></div>","none","500","","","","","","","","",""
"","426","90","1850","0","stim","stop-signal","33","66678","0.0-2.0-6.0","stop_signal","","practice","<div class = shapebox><img class = stim src = /static/experiments/stop_signal/images/hourglass.png></img></div>","77,90","850","90","practice","2","<div class = stopbox><div class = centered-shape id = stop-signal></div><div class = centered-shape id = stop-signal-inner></div></div>","250","go","500","",""
"","-1","-1","500","0","fixation","poldrack-single-stim","34","67190","0.0-2.0-7.0","stop_signal","","practice","<div class = shapebox><div class = fixation>+</div></div>","none","500","","","","","","","","",""
"","468","90","1850","0","stim","stop-signal","35","69057","0.0-2.0-8.0","stop_signal","","practice","<div class = shapebox><img class = stim src = /static/experiments/stop_signal/images/pentagon.png></img></div>","77,90","850","90","practice","3","<div class = stopbox><div class = centered-shape id = stop-signal></div><div class = centered-shape id = stop-signal-inner></div></div>","250","go","500","",""
"","-1","-1","500","0","fixation","poldrack-single-stim","36","69565","0.0-2.0-9.0","stop_signal","","practice","<div class = shapebox><div class = fixation>+</div></div>","none","500","","","","","","","","",""
"","348","77","1850","0","stim","stop-signal","37","71421","0.0-2.0-10.0","stop_signal","","practice","<div class = shapebox><img class = stim src = /static/experiments/stop_signal/images/square.png></img></div>","77,90","850","77","practice","4","<div class = stopbox><div class = centered-shape id = stop-signal></div><div class = centered-shape id = stop-signal-inner></div></div>","250","stop","500","",""
"","-1","-1","500","0","fixation","poldrack-single-stim","38","71931","0.0-2.0-11.0","stop_signal","","practice","<div class = shapebox><div class = fixation>+</div></div>","none","500","","","","","","","","",""
"","366","90","1850","0","stim","stop-signal","39","73798","0.0-2.0-12.0","stop_signal","","practice","<div class = shapebox><img class = stim src = /static/experiments/stop_signal/images/hourglass.png></img></div>","77,90","850","90","practice","5","<div class = stopbox><div class = centered-shape id = stop-signal></div><div class = centered-shape id = stop-signal-inner></div></div>","250","stop","500","",""
"","-1","-1","500","0","fixation","poldrack-single-stim","40","74301","0.0-2.0-13.0","stop_signal","","practice","<div class = shapebox><div class = fixation>+</div></div>","none","500","","","","","","","","",""
"","349","77","1850","0","stim","stop-signal","41","76160","0.0-2.0-14.0","stop_signal","","practice","<div class = shapebox><img class = stim src = /static/experiments/stop_signal/images/square.png></img></div>","77,90","850","77","practice","6","<div class = stopbox><div class = centered-shape id = stop-signal></div><div class = centered-shape id = stop-signal-inner></div></div>","250","stop","500","",""
"","-1","-1","500","0","fixation","poldrack-single-stim","42","76662","0.0-2.0-15.0","stop_signal","","practice","<div class = shapebox><div class = fixation>+</div></div>","none","500","","","","","","","","",""
"","365","90","1850","0","stim","stop-signal","43","78518","0.0-2.0-16.0","stop_signal","","practice","<div class = shapebox><img class = stim src = /static/experiments/stop_signal/images/hourglass.png></img></div>","77,90","850","90","practice","7","<div class = stopbox><div class = centered-shape id = stop-signal></div><div class = centered-shape id = stop-signal-inner></div></div>","250","go","500","",""
"","-1","-1","500","0","fixation","poldrack-single-stim","44","79026","0.0-2.0-17.0","stop_signal","","practice","<div class = shapebox><div class = fixation>+</div></div>","none","500","","","","","","","","",""
"","399","77","1850","0","stim","stop-signal","45","80893","0.0-2.0-18.0","stop_signal","","practice","<div class = shapebox><img class = stim src = /static/experiments/stop_signal/images/pentagon.png></img></div>","77,90","850","90","practice","8","<div class = stopbox><div class = centered-shape id = stop-signal></div><div class = centered-shape id = stop-signal-inner></div></div>","250","go","500","",""
"","-1","-1","500","0","fixation","poldrack-single-stim","46","81398","0.0-2.0-19.0","stop_signal","","practice","<div class = shapebox><div class = fixation>+</div></div>","none","500","","","","","","","","",""
"","443","90","1850","0","stim","stop-signal","47","83254","0.0-2.0-20.0","stop_signal","","practice","<div class = shapebox><img class = stim src = /static/experiments/stop_signal/images/pentagon.png></img></div>","77,90","850","90","practice","9","<div class = stopbox><div class = centered-shape id = stop-signal></div><div class = centered-shape id = stop-signal-inner></div></div>","250","go","500","",""
"","-1","-1","500","0","fixation","poldrack-single-stim","48","83758","0.0-2.0-21.0","stop_signal","","practice","<div class = shapebox><div class = fixation>+</div></div>","none","500","","","","","","","","",""
"","403","77","1850","0","stim","stop-signal","49","85622","0.0-2.0-22.0","stop_signal","","practice","<div class = shapebox><img class = stim src = /static/experiments/stop_signal/images/square.png></img></div>","77,90","850","77","practice","10","<div class = stopbox><div class = centered-shape id = stop-signal></div><div class = centered-shape id = stop-signal-inner></div></div>","250","go","500","",""
"","-1","-1","500","0","fixation","poldrack-single-stim","50","86128","0.0-2.0-23.0","stop_signal","","practice","<div class = shapebox><div class = fixation>+</div></div>","none","500","","","","","","","","",""
"","329","77","1850","0","stim","stop-signal","51","87991","0.0-2.0-24.0","stop_signal","","practice","<div class = shapebox><img class = stim src = /static/experiments/stop_signal/images/square.png></img></div>","77,90","850","77","practice","11","<div class = stopbox><div class = centered-shape id = stop-signal></div><div class = centered-shape id = stop-signal-inner></div></div>","250","stop","500","",""
"","-1","-1","500","0","fixation","poldrack-single-stim","52","88501","0.0-2.0-25.0","stop_signal","","practice","<div class = shapebox><div class = fixation>+</div></div>","none","500","","","","","","","","",""
"","340","90","1850","0","stim","stop-signal","53","90362","0.0-2.0-26.0","stop_signal","","practice","<div class = shapebox><img class = stim src = /static/experiments/stop_signal/images/pentagon.png></img></div>","77,90","850","90","practice","12","<div class = stopbox><div class = centered-shape id = stop-signal></div><div class = centered-shape id = stop-signal-inner></div></div>","250","stop","500","",""
"","-1","-1","500","0","fixation","poldrack-single-stim","54","90879","0.0-2.0-27.0","stop_signal","","practice","<div class = shapebox><div class = fixation>+</div></div>","none","500","","","","","","","","",""
"","363","90","1850","0","stim","stop-signal","55","92734","0.0-2.0-28.0","stop_signal","","practice","<div class = shapebox><img class = stim src = /static/experiments/stop_signal/images/tear.png></img></div>","77,90","850","77","practice","13","<div class = stopbox><div class = centered-shape id = stop-signal></div><div class = centered-shape id = stop-signal-inner></div></div>","250","go","500","",""
"","-1","-1","500","0","fixation","poldrack-single-stim","56","93241","0.0-2.0-29.0","stop_signal","","practice","<div class = shapebox><div class = fixation>+</div></div>","none","500","","","","","","","","",""
"","394","90","1850","0","stim","stop-signal","57","95098","0.0-2.0-30.0","stop_signal","","practice","<div class = shapebox><img class = stim src = /static/experiments/stop_signal/images/tear.png></img></div>","77,90","850","77","practice","14","<div class = stopbox><div class = centered-shape id = stop-signal></div><div class = centered-shape id = stop-signal-inner></div></div>","250","stop","500","",""
"","-1","-1","500","0","fixation","poldrack-single-stim","58","95615","0.0-2.0-31.0","stop_signal","","practice","<div class = shapebox><div class = fixation>+</div></div>","none","500","","","","","","","","",""
"","531","90","1850","0","stim","stop-signal","59","97471","0.0-2.0-32.0","stop_signal","","practice","<div class = shapebox><img class = stim src = /static/experiments/stop_signal/images/hourglass.png></img></div>","77,90","850","90","practice","15","<div class = stopbox><div class = centered-shape id = stop-signal></div><div class = centered-shape id = stop-signal-inner></div></div>","250","go","500","",""
"","-1","-1","500","0","fixation","poldrack-single-stim","60","97975","0.0-2.0-33.0","stop_signal","","practice","<div class = shapebox><div class = fixation>+</div></div>","none","500","","","","","","","","",""
"","452","90","1850","0","stim","stop-signal","61","99833","0.0-2.0-34.0","stop_signal","","practice","<div class = shapebox><img class = stim src = /static/experiments/stop_signal/images/tear.png></img></div>","77,90","850","77","practice","16","<div class = stopbox><div class = centered-shape id = stop-signal></div><div class = centered-shape id = stop-signal-inner></div></div>","250","go","500","",""
"","-1","-1","500","0","fixation","poldrack-single-stim","62","100340","0.0-2.0-35.0","stop_signal","","practice","<div class = shapebox><div class = fixation>+</div></div>","none","500","","","","","","","","",""
"","374","77","1850","0","stim","stop-signal","63","102199","0.0-2.0-36.0","stop_signal","","practice","<div class = shapebox><img class = stim src = /static/experiments/stop_signal/images/square.png></img></div>","77,90","850","77","practice","17","<div class = stopbox><div class = centered-shape id = stop-signal></div><div class = centered-shape id = stop-signal-inner></div></div>","250","go","500","",""
"","-1","-1","500","0","fixation","poldrack-single-stim","64","102705","0.0-2.0-37.0","stop_signal","","practice","<div class = shapebox><div class = fixation>+</div></div>","none","500","","","","","","","","",""
"","521","90","1850","0","stim","stop-signal","65","104563","0.0-2.0-38.0","stop_signal","","practice","<div class = shapebox><img class = stim src = /static/experiments/stop_signal/images/hourglass.png></img></div>","77,90","850","90","practice","18","<div class = stopbox><div class = centered-shape id = stop-signal></div><div class = centered-shape id = stop-signal-inner></div></div>","250","go","500","",""
"","-1","-1","500","0","fixation","poldrack-single-stim","66","105067","0.0-2.0-39.0","stop_signal","","practice","<div class = shapebox><div class = fixation>+</div></div>","none","500","","","","","","","","",""
"","527","77","1850","0","stim","stop-signal","67","106925","0.0-2.0-40.0","stop_signal","","practice","<div class = shapebox><img class = stim src = /static/experiments/stop_signal/images/tear.png></img></div>","77,90","850","77","practice","19","<div class = stopbox><div class = centered-shape id = stop-signal></div><div class = centered-shape id = stop-signal-inner></div></div>","250","go","500","",""
"<div class = centerbox><p class = block-text></p><p class = block-text><strong>Average reaction time:  444 ms. Accuracy for non-star trials: 79%</strong></p><p class = block-text>We will try another practice block. </p><p class = block-text>Your accuracy is too low. Remember, the correct keys are as follows: <ul list-text><li><img class = prompt_stim src = /static/experiments/stop_signal/images/pentagon.png></img>&nbsp&nbsp&nbsp&nbspZ key</li><li><img class = prompt_stim src = /static/experiments/stop_signal/images/hourglass.png></img>&nbsp&nbsp&nbsp&nbspZ key </li><li><img class = prompt_stim src = /static/experiments/stop_signal/images/tear.png></img>   &nbsp&nbsp&nbsp&nbspM key </li><li><img class = prompt_stim src = /static/experiments/stop_signal/images/square.png></img>&nbsp&nbsp&nbsp&nbspM key </li></ul></p><p class = block-text><strong>Remember to try and withhold your response when you see a stop signal.</strong></p><p class = block-text>Press <strong>Enter</strong> to continue</p></div>","1229","13","1229","1000","feedback","poldrack-text","68","108155","0.0-2.1-0.1","stop_signal","","practice","","","","","","","","","","","",""
"","-1","-1","500","0","fixation","poldrack-single-stim","69","109670","0.0-2.1-1.1","stop_signal","","practice","<div class = shapebox><div class = fixation>+</div></div>","none","500","","","","","","","","",""
"","421","77","1850","0","stim","stop-signal","70","111536","0.0-2.1-2.1","stop_signal","","practice","<div class = shapebox><img class = stim src = /static/experiments/stop_signal/images/tear.png></img></div>","77,90","850","77","practice","20","<div class = stopbox><div class = centered-shape id = stop-signal></div><div class = centered-shape id = stop-signal-inner></div></div>","250","go","500","",""
"","-1","-1","500","0","fixation","poldrack-single-stim","71","112052","0.0-2.1-3.1","stop_signal","","practice","<div class = shapebox><div class = fixation>+</div></div>","none","500","","","","","","","","",""
"","462","90","1850","0","stim","stop-signal","72","113909","0.0-2.1-4.1","stop_signal","","practice","<div class = shapebox><img class = stim src = /static/experiments/stop_signal/images/pentagon.png></img></div>","77,90","850","90","practice","21","<div class = stopbox><div class = centered-shape id = stop-signal></div><div class = centered-shape id = stop-signal-inner></div></div>","250","go","500","",""
"","-1","-1","500","0","fixation","poldrack-single-stim","73","114417","0.0-2.1-5.1","stop_signal","","practice","<div class = shapebox><div class = fixation>+</div></div>","none","500","","","","","","","","",""
"","345","77","1850","0","stim","stop-signal","74","116271","0.0-2.1-6.1","stop_signal","","practice","<div class = shapebox><img class = stim src = /static/experiments/stop_signal/images/square.png></img></div>","77,90","850","77","practice","22","<div class = stopbox><div class = centered-shape id = stop-signal></div><div class = centered-shape id = stop-signal-inner></div></div>","250","go","500","",""
"","-1","-1","500","0","fixation","poldrack-single-stim","75","116788","0.0-2.1-7.1","stop_signal","","practice","<div class = shapebox><div class = fixation>+</div></div>","none","500","","","","","","","","",""
"","446","77","1850","0","stim","stop-signal","76","118653","0.0-2.1-8.1","stop_signal","","practice","<div class = shapebox><img class = stim src = /static/experiments/stop_signal/images/square.png></img></div>","77,90","850","77","practice","23","<div class = stopbox><div class = centered-shape id = stop-signal></div><div class = centered-shape id = stop-signal-inner></div></div>","250","stop","500","",""
"","-1","-1","500","0","fixation","poldrack-single-stim","77","119161","0.0-2.1-9.1","stop_signal","","practice","<div class = shapebox><div class = fixation>+</div></div>","none","500","","","","","","","","",""
"","442","77","1850","0","stim","stop-signal","78","121022","0.0-2.1-10.1","stop_signal","","practice","<div class = shapebox><img class = stim src = /static/experiments/stop_signal/images/square.png></img></div>","77,90","850","77","practice","24","<div class = stopbox><div class = centered-shape id = stop-signal></div><div class = centered-shape id = stop-signal-inner></div></div>","250","go","500","",""
"","-1","-1","500","0","fixation","poldrack-single-stim","79","121529","0.0-2.1-11.1","stop_signal","","practice","<div class = shapebox><div class = fixation>+</div></div>","none","500","","","","","","","","",""
"","433","77","1850","0","stim","stop-signal","80","123392","0.0-2.1-12.1","stop_signal","","practice","<div class = shapebox><img class = stim src = /static/experiments/stop_signal/images/square.png></img></div>","77,90","850","77","practice","25","<div class = stopbox><div class = centered-shape id = stop-signal></div><div class = centered-shape id = stop-signal-inner></div></div>","250","go","500","",""
"","-1","-1","500","0","fixation","poldrack-single-stim","81","123894","0.0-2.1-13.1","stop_signal","","practice","<div class = shapebox><div class = fixation>+</div></div>","none","500","","","","","","","","",""
"","452","90","1850","0","stim","stop-signal","82","125754","0.0-2.1-14.1","stop_signal","","practice","<div class = shapebox><img class = stim src = /static/experiments/stop_signal/images/pentagon.png></img></div>","77,90","850","90","practice","26","<div class = stopbox><div class = centered-shape id = stop-signal></div><div class = centered-shape id = stop-signal-inner></div></div>","250","go","500","",""
"","-1","-1","500","0","fixation","poldrack-single-stim","83","126266","0.0-2.1-15.1","stop_signal","","practice","<div class = shapebox><div class = fixation>+</div></div>","none","500","","","","","","","","",""
"","447","90","1850","0","stim","stop-signal","84","128128","0.0-2.1-16.1","stop_signal","","practice","<div class = shapebox><img class = stim src = /static/experiments/stop_signal/images/tear.png></img></div>","77,90","850","77","practice","27","<div class = stopbox><div class = centered-shape id = stop-signal></div><div class = centered-shape id = stop-signal-inner></div></div>","250","stop","500","",""
"","-1","-1","500","0","fixation","poldrack-single-stim","85","128638","0.0-2.1-17.1","stop_signal","","practice","<div class = shapebox><div class = fixation>+</div></div>","none","500","","","","","","","","",""
"","532","77","1850","0","stim","stop-signal","86","130499","0.0-2.1-18.1","stop_signal","","practice","<div class = shapebox><img class = stim src = /static/experiments/stop_signal/images/pentagon.png></img></div>","77,90","850","90","practice","28","<div class = stopbox><div class = centered-shape id = stop-signal></div><div class = centered-shape id = stop-signal-inner></div></div>","250","stop","500","",""
"","-1","-1","500","0","fixation","poldrack-single-stim","87","131006","0.0-2.1-19.1","stop_signal","","practice","<div class = shapebox><div class = fixation>+</div></div>","none","500","","","","","","","","",""
"","564","90","1850","0","stim","stop-signal","88","132861","0.0-2.1-20.1","stop_signal","","practice","<div class = shapebox><img class = stim src = /static/experiments/stop_signal/images/hourglass.png></img></div>","77,90","850","90","practice","29","<div class = stopbox><div class = centered-shape id = stop-signal></div><div class = centered-shape id = stop-signal-inner></div></div>","250","go","500","",""
"","-1","-1","500","0","fixation","poldrack-single-stim","89","133366","0.0-2.1-21.1","stop_signal","","practice","<div class = shapebox><div class = fixation>+</div></div>","none","500","","","","","","","","",""
"","596","77","1850","0","stim","stop-signal","90","135223","0.0-2.1-22.1","stop_signal","","practice","<div class = shapebox><img class = stim src = /static/experiments/stop_signal/images/tear.png></img></div>","77,90","850","77","practice","30","<div class = stopbox><div class = centered-shape id = stop-signal></div><div class = centered-shape id = stop-signal-inner></div></div>","250","go","500","",""
"","-1","-1","500","0","fixation","poldrack-single-stim","91","135732","0.0-2.1-23.1","stop_signal","","practice","<div class = shapebox><div class = fixation>+</div></div>","none","500","","","","","","","","",""
"","542","90","1850","0","stim","stop-signal","92","137598","0.0-2.1-24.1","stop_signal","","practice","<div class = shapebox><img class = stim src = /static/experiments/stop_signal/images/hourglass.png></img></div>","77,90","850","90","practice","31","<div class = stopbox><div class = centered-shape id = stop-signal></div><div class = centered-shape id = stop-signal-inner></div></div>","250","go","500","",""
"","-1","-1","500","0","fixation","poldrack-single-stim","93","138115","0.0-2.1-25.1","stop_signal","","practice","<div class = shapebox><div class = fixation>+</div></div>","none","500","","","","","","","","",""
"","487","77","1850","0","stim","stop-signal","94","139978","0.0-2.1-26.1","stop_signal","","practice","<div class = shapebox><img class = stim src = /static/experiments/stop_signal/images/pentagon.png></img></div>","77,90","850","90","practice","32","<div class = stopbox><div class = centered-shape id = stop-signal></div><div class = centered-shape id = stop-signal-inner></div></div>","250","go","500","",""
"","-1","-1","500","0","fixation","poldrack-single-stim","95","140487","0.0-2.1-27.1","stop_signal","","practice","<div class = shapebox><div class = fixation>+</div></div>","none","500","","","","","","","","",""
"","420","77","1850","0","stim","stop-signal","96","142349","0.0-2.1-28.1","stop_signal","","practice","<div class = shapebox><img class = stim src = /static/experiments/stop_signal/images/square.png></img></div>","77,90","850","77","practice","33","<div class = stopbox><div class = centered-shape id = stop-signal></div><div class = centered-shape id = stop-signal-inner></div></div>","250","go","500","",""
"","-1","-1","500","0","fixation","poldrack-single-stim","97","142858","0.0-2.1-29.1","stop_signal","","practice","<div class = shapebox><div class = fixation>+</div></div>","none","500","","","","","","","","",""
"","560","77","1850","0","stim","stop-signal","98","144722","0.0-2.1-30.1","stop_signal","","practice","<div class = shapebox><img class = stim src = /static/experiments/stop_signal/images/tear.png></img></div>","77,90","850","77","practice","34","<div class = stopbox><div class = centered-shape id = stop-signal></div><div class = centered-shape id = stop-signal-inner></div></div>","250","stop","500","",""
"","-1","-1","500","0","fixation","poldrack-single-stim","99","145230","0.0-2.1-31.1","stop_signal","","practice","<div class = shapebox><div class = fixation>+</div></div>","none","500","","","","","","","","",""
"","452","90","1850","0","stim","stop-signal","100","147091","0.0-2.1-32.1","stop_signal","","practice","<div class = shapebox><img class = stim src = /static/experiments/stop_signal/images/hourglass.png></img></div>","77,90","850","90","practice","35","<div class = stopbox><div class = centered-shape id = stop-signal></div><div class = centered-shape id = stop-signal-inner></div></div>","250","go","500","",""
"","-1","-1","500","0","fixation","poldrack-single-stim","101","147599","0.0-2.1-33.1","stop_signal","","practice","<div class = shapebox><div class = fixation>+</div></div>","none","500","","","","","","","","",""
"","516","90","1850","0","stim","stop-signal","102","149460","0.0-2.1-34.1","stop_signal","","practice","<div class = shapebox><img class = stim src = /static/experiments/stop_signal/images/pentagon.png></img></div>","77,90","850","90","practice","36","<div class = stopbox><div class = centered-shape id = stop-signal></div><div class = centered-shape id = stop-signal-inner></div></div>","250","go","500","",""
"","-1","-1","500","0","fixation","poldrack-single-stim","103","149965","0.0-2.1-35.1","stop_signal","","practice","<div class = shapebox><div class = fixation>+</div></div>","none","500","","","","","","","","",""
"","533","90","1850","0","stim","stop-signal","104","151820","0.0-2.1-36.1","stop_signal","","practice","<div class = shapebox><img class = stim src = /static/experiments/stop_signal/images/hourglass.png></img></div>","77,90","850","90","practice","37","<div class = stopbox><div class = centered-shape id = stop-signal></div><div class = centered-shape id = stop-signal-inner></div></div>","250","go","500","",""
"","-1","-1","500","0","fixation","poldrack-single-stim","105","152328","0.0-2.1-37.1","stop_signal","","practice","<div class = shapebox><div class = fixation>+</div></div>","none","500","","","","","","","","",""
"","482","90","1850","0","stim","stop-signal","106","154190","0.0-2.1-38.1","stop_signal","","practice","<div class = shapebox><img class = stim src = /static/experiments/stop_signal/images/hourglass.png></img></div>","77,90","850","90","practice","38","<div class = stopbox><div class = centered-shape id = stop-signal></div><div class = centered-shape id = stop-signal-inner></div></div>","250","stop","500","",""
"","-1","-1","500","0","fixation","poldrack-single-stim","107","154694","0.0-2.1-39.1","stop_signal","","practice","<div class = shapebox><div class = fixation>+</div></div>","none","500","","","","","","","","",""
"","453","90","1850","0","stim","stop-signal","108","156547","0.0-2.1-40.1","stop_signal","","practice","<div class = shapebox><img class = stim src = /static/experiments/stop_signal/images/tear.png></img></div>","77,90","850","77","practice","39","<div class = stopbox><div class = centered-shape id = stop-signal></div><div class = centered-shape id = stop-signal-inner></div></div>","250","stop","500","",""
"<div class = centerbox><p class = block-text></p><p class = block-text><strong>Average reaction time:  457 ms. Accuracy for non-star trials: 93%</strong></p><p class = block-text>We will try another practice block. </p><p class = block-text><strong>Remember to try and withhold your response when you see a stop signal.</strong></p><p class = block-text>Press <strong>Enter</strong> to continue</p></div>","5542","13","5542","1000","feedback","poldrack-text","109","162091","0.0-2.2-0.2","stop_signal","","practice","","","","","","","","","","","",""
"","-1","-1","500","0","fixation","poldrack-single-stim","110","163603","0.0-2.2-1.2","stop_signal","","practice","<div class = shapebox><div class = fixation>+</div></div>","none","500","","","","","","","","",""
"","550","90","1850","0","stim","stop-signal","111","165470","0.0-2.2-2.2","stop_signal","","practice","<div class = shapebox><img class = stim src = /static/experiments/stop_signal/images/hourglass.png></img></div>","77,90","850","90","practice","40","<div class = stopbox><div class = centered-shape id = stop-signal></div><div class = centered-shape id = stop-signal-inner></div></div>","250","go","500","",""
"","-1","-1","500","0","fixation","poldrack-single-stim","112","165979","0.0-2.2-3.2","stop_signal","","practice","<div class = shapebox><div class = fixation>+</div></div>","none","500","","","","","","","","",""
"","582","77","1850","0","stim","stop-signal","113","167832","0.0-2.2-4.2","stop_signal","","practice","<div class = shapebox><img class = stim src = /static/experiments/stop_signal/images/tear.png></img></div>","77,90","850","77","practice","41","<div class = stopbox><div class = centered-shape id = stop-signal></div><div class = centered-shape id = stop-signal-inner></div></div>","250","stop","500","",""
"","-1","-1","500","0","fixation","poldrack-single-stim","114","168342","0.0-2.2-5.2","stop_signal","","practice","<div class = shapebox><div class = fixation>+</div></div>","none","500","","","","","","","","",""
"","403","77","1850","0","stim","stop-signal","115","170208","0.0-2.2-6.2","stop_signal","","practice","<div class = shapebox><img class = stim src = /static/experiments/stop_signal/images/square.png></img></div>","77,90","850","77","practice","42","<div class = stopbox><div class = centered-shape id = stop-signal></div><div class = centered-shape id = stop-signal-inner></div></div>","250","stop","500","",""
"","-1","-1","500","0","fixation","poldrack-single-stim","116","170714","0.0-2.2-7.2","stop_signal","","practice","<div class = shapebox><div class = fixation>+</div></div>","none","500","","","","","","","","",""
"","448","90","1850","0","stim","stop-signal","117","172566","0.0-2.2-8.2","stop_signal","","practice","<div class = shapebox><img class = stim src = /static/experiments/stop_signal/images/tear.png></img></div>","77,90","850","77","practice","43","<div class = stopbox><div class = centered-shape id = stop-signal></div><div class = centered-shape id = stop-signal-inner></div></div>","250","stop","500","",""
"","-1","-1","500","0","fixation","poldrack-single-stim","118","173070","0.0-2.2-9.2","stop_signal","","practice","<div class = shapebox><div class = fixation>+</div></div>","none","500","","","","","","","","",""
"","580","90","1850","0","stim","stop-signal","119","174925","0.0-2.2-10.2","stop_signal","","practice","<div class = shapebox><img class = stim src = /static/experiments/stop_signal/images/hourglass.png></img></div>","77,90","850","90","practice","44","<div class = stopbox><div class = centered-shape id = stop-signal></div><div class = centered-shape id = stop-signal-inner></div></div>","250","go","500","",""
"","-1","-1","500","0","fixation","poldrack-single-stim","120","175428","0.0-2.2-11.2","stop_signal","","practice","<div class = shapebox><div class = fixation>+</div></div>","none","500","","","","","","","","",""
"","381","77","1850","0","stim","stop-signal","121","177291","0.0-2.2-12.2","stop_signal","","practice","<div class = shapebox><img class = stim src = /static/experiments/stop_signal/images/square.png></img></div>","77,90","850","77","practice","45","<div class = stopbox><div class = centered-shape id = stop-signal></div><div class = centered-shape id = stop-signal-inner></div></div>","250","go","500","",""
"","-1","-1","500","0","fixation","poldrack-single-stim","122","177801","0.0-2.2-13.2","stop_signal","","practice","<div class = shapebox><div class = fixation>+</div></div>","none","500","","","","","","","","",""
"","528","90","1850","0","stim","stop-signal","123","179659","0.0-2.2-14.2","stop_signal","","practice","<div class = shapebox><img class = stim src = /static/experiments/stop_signal/images/pentagon.png></img></div>","77,90","850","90","practice","46","<div class = stopbox><div class = centered-shape id = stop-signal></div><div class = centered-shape id = stop-signal-inner></div></div>","250","go","500","",""
"","-1","-1","500","0","fixation","poldrack-single-stim","124","180175","0.0-2.2-15.2","stop_signal","","practice","<div class = shapebox><div class = fixation>+</div></div>","none","500","","","","","","","","",""
"","402","77","1850","0","stim","stop-signal","125","182033","0.0-2.2-16.2","stop_signal","","practice","<div class = shapebox><img class = stim src = /static/experiments/stop_signal/images/square.png></img></div>","77,90","850","77","practice","47","<div class = stopbox><div class = centered-shape id = stop-signal></div><div class = centered-shape id = stop-signal-inner></div></div>","250","go","500","",""
"","-1","-1","500","0","fixation","poldrack-single-stim","126","182536","0.0-2.2-17.2","stop_signal","","practice","<div class = shapebox><div class = fixation>+</div></div>","none","500","","","","","","","","",""
"","410","77","1850","0","stim","stop-signal","127","184389","0.0-2.2-18.2","stop_signal","","practice","<div class = shapebox><img class = stim src = /static/experiments/stop_signal/images/square.png></img></div>","77,90","850","77","practice","48","<div class = stopbox><div class = centered-shape id = stop-signal></div><div class = centered-shape id = stop-signal-inner></div></div>","250","go","500","",""
"","-1","-1","500","0","fixation","poldrack-single-stim","128","184895","0.0-2.2-19.2","stop_signal","","practice","<div class = shapebox><div class = fixation>+</div></div>","none","500","","","","","","","","",""
"","435","90","1850","0","stim","stop-signal","129","186752","0.0-2.2-20.2","stop_signal","","practice","<div class = shapebox><img class = stim src = /static/experiments/stop_signal/images/hourglass.png></img></div>","77,90","850","90","practice","49","<div class = stopbox><div class = centered-shape id = stop-signal></div><div class = centered-shape id = stop-signal-inner></div></div>","250","go","500","",""
"","-1","-1","500","0","fixation","poldrack-single-stim","130","187255","0.0-2.2-21.2","stop_signal","","practice","<div class = shapebox><div class = fixation>+</div></div>","none","500","","","","","","","","",""
"","562","77","1850","0","stim","stop-signal","131","189121","0.0-2.2-22.2","stop_signal","","practice","<div class = shapebox><img class = stim src = /static/experiments/stop_signal/images/tear.png></img></div>","77,90","850","77","practice","50","<div class = stopbox><div class = centered-shape id = stop-signal></div><div class = centered-shape id = stop-signal-inner></div></div>","250","go","500","",""
"","-1","-1","500","0","fixation","poldrack-single-stim","132","189630","0.0-2.2-23.2","stop_signal","","practice","<div class = shapebox><div class = fixation>+</div></div>","none","500","","","","","","","","",""
"","660","77","1850","0","stim","stop-signal","133","191490","0.0-2.2-24.2","stop_signal","","practice","<div class = shapebox><img class = stim src = /static/experiments/stop_signal/images/tear.png></img></div>","77,90","850","77","practice","51","<div class = stopbox><div class = centered-shape id = stop-signal></div><div class = centered-shape id = stop-signal-inner></div></div>","250","stop","500","",""
"","-1","-1","500","0","fixation","poldrack-single-stim","134","192006","0.0-2.2-25.2","stop_signal","","practice","<div class = shapebox><div class = fixation>+</div></div>","none","500","","","","","","","","",""
"","499","90","1850","0","stim","stop-signal","135","193866","0.0-2.2-26.2","stop_signal","","practice","<div class = shapebox><img class = stim src = /static/experiments/stop_signal/images/pentagon.png></img></div>","77,90","850","90","practice","52","<div class = stopbox><div class = centered-shape id = stop-signal></div><div class = centered-shape id = stop-signal-inner></div></div>","250","go","500","",""
"","-1","-1","500","0","fixation","poldrack-single-stim","136","194381","0.0-2.2-27.2","stop_signal","","practice","<div class = shapebox><div class = fixation>+</div></div>","none","500","","","","","","","","",""
"","580","77","1850","0","stim","stop-signal","137","196239","0.0-2.2-28.2","stop_signal","","practice","<div class = shapebox><img class = stim src = /static/experiments/stop_signal/images/tear.png></img></div>","77,90","850","77","practice","53","<div class = stopbox><div class = centered-shape id = stop-signal></div><div class = centered-shape id = stop-signal-inner></div></div>","250","go","500","",""
"","-1","-1","500","0","fixation","poldrack-single-stim","138","196755","0.0-2.2-29.2","stop_signal","","practice","<div class = shapebox><div class = fixation>+</div></div>","none","500","","","","","","","","",""
"","527","90","1850","0","stim","stop-signal","139","198615","0.0-2.2-30.2","stop_signal","","practice","<div class = shapebox><img class = stim src = /static/experiments/stop_signal/images/hourglass.png></img></div>","77,90","850","90","practice","54","<div class = stopbox><div class = centered-shape id = stop-signal></div><div class = centered-shape id = stop-signal-inner></div></div>","250","go","500","",""
"","-1","-1","500","0","fixation","poldrack-single-stim","140","199127","0.0-2.2-31.2","stop_signal","","practice","<div class = shapebox><div class = fixation>+</div></div>","none","500","","","","","","","","",""
"","521","77","1850","0","stim","stop-signal","141","200990","0.0-2.2-32.2","stop_signal","","practice","<div class = shapebox><img class = stim src = /static/experiments/stop_signal/images/square.png></img></div>","77,90","850","77","practice","55","<div class = stopbox><div class = centered-shape id = stop-signal></div><div class = centered-shape id = stop-signal-inner></div></div>","250","go","500","",""
"","-1","-1","500","0","fixation","poldrack-single-stim","142","201505","0.0-2.2-33.2","stop_signal","","practice","<div class = shapebox><div class = fixation>+</div></div>","none","500","","","","","","","","",""
"","617","90","1850","0","stim","stop-signal","143","203367","0.0-2.2-34.2","stop_signal","","practice","<div class = shapebox><img class = stim src = /static/experiments/stop_signal/images/pentagon.png></img></div>","77,90","850","90","practice","56","<div class = stopbox><div class = centered-shape id = stop-signal></div><div class = centered-shape id = stop-signal-inner></div></div>","250","stop","500","",""
"","-1","-1","500","0","fixation","poldrack-single-stim","144","203875","0.0-2.2-35.2","stop_signal","","practice","<div class = shapebox><div class = fixation>+</div></div>","none","500","","","","","","","","",""
"","447","90","1850","0","stim","stop-signal","145","205729","0.0-2.2-36.2","stop_signal","","practice","<div class = shapebox><img class = stim src = /static/experiments/stop_signal/images/pentagon.png></img></div>","77,90","850","90","practice","57","<div class = stopbox><div class = centered-shape id = stop-signal></div><div class = centered-shape id = stop-signal-inner></div></div>","250","go","500","",""
"","-1","-1","500","0","fixation","poldrack-single-stim","146","206235","0.0-2.2-37.2","stop_signal","","practice","<div class = shapebox><div class = fixation>+</div></div>","none","500","","","","","","","","",""
"","503","90","1850","0","stim","stop-signal","147","208100","0.0-2.2-38.2","stop_signal","","practice","<div class = shapebox><img class = stim src = /static/experiments/stop_signal/images/hourglass.png></img></div>","77,90","850","90","practice","58","<div class = stopbox><div class = centered-shape id = stop-signal></div><div class = centered-shape id = stop-signal-inner></div></div>","250","stop","500","",""
"","-1","-1","500","0","fixation","poldrack-single-stim","148","208611","0.0-2.2-39.2","stop_signal","","practice","<div class = shapebox><div class = fixation>+</div></div>","none","500","","","","","","","","",""
"","535","90","1850","0","stim","stop-signal","149","210466","0.0-2.2-40.2","stop_signal","","practice","<div class = shapebox><img class = stim src = /static/experiments/stop_signal/images/pentagon.png></img></div>","77,90","850","90","practice","59","<div class = stopbox><div class = centered-shape id = stop-signal></div><div class = centered-shape id = stop-signal-inner></div></div>","250","go","500","",""
"<div class = centerbox><p class = block-text></p><p class = block-text><strong>Average reaction time:  524 ms. Accuracy for non-star trials: 100%</strong></p><p class = block-text>We will try another practice block. </p><p class = block-text><strong>Remember to try and withhold your response when you see a stop signal.</strong></p><p class = block-text>Press <strong>Enter</strong> to continue</p></div>","1119","13","1119","1000","feedback","poldrack-text","150","211586","0.0-2.3-0.3","stop_signal","","practice","","","","","","","","","","","",""
"","-1","-1","500","0","fixation","poldrack-single-stim","151","213113","0.0-2.3-1.3","stop_signal","","practice","<div class = shapebox><div class = fixation>+</div></div>","none","500","","","","","","","","",""
"","473","77","1850","0","stim","stop-signal","152","214974","0.0-2.3-2.3","stop_signal","","practice","<div class = shapebox><img class = stim src = /static/experiments/stop_signal/images/square.png></img></div>","77,90","850","77","practice","60","<div class = stopbox><div class = centered-shape id = stop-signal></div><div class = centered-shape id = stop-signal-inner></div></div>","250","stop","500","",""
"","-1","-1","500","0","fixation","poldrack-single-stim","153","215491","0.0-2.3-3.3","stop_signal","","practice","<div class = shapebox><div class = fixation>+</div></div>","none","500","","","","","","","","",""
"","494","90","1850","0","stim","stop-signal","154","217352","0.0-2.3-4.3","stop_signal","","practice","<div class = shapebox><img class = stim src = /static/experiments/stop_signal/images/hourglass.png></img></div>","77,90","850","90","practice","61","<div class = stopbox><div class = centered-shape id = stop-signal></div><div class = centered-shape id = stop-signal-inner></div></div>","250","go","500","",""
"","-1","-1","500","0","fixation","poldrack-single-stim","155","217860","0.0-2.3-5.3","stop_signal","","practice","<div class = shapebox><div class = fixation>+</div></div>","none","500","","","","","","","","",""
"","550","90","1850","0","stim","stop-signal","156","219725","0.0-2.3-6.3","stop_signal","","practice","<div class = shapebox><img class = stim src = /static/experiments/stop_signal/images/pentagon.png></img></div>","77,90","850","90","practice","62","<div class = stopbox><div class = centered-shape id = stop-signal></div><div class = centered-shape id = stop-signal-inner></div></div>","250","stop","500","",""
"","-1","-1","500","0","fixation","poldrack-single-stim","157","220234","0.0-2.3-7.3","stop_signal","","practice","<div class = shapebox><div class = fixation>+</div></div>","none","500","","","","","","","","",""
"","544","90","1850","0","stim","stop-signal","158","222090","0.0-2.3-8.3","stop_signal","","practice","<div class = shapebox><img class = stim src = /static/experiments/stop_signal/images/pentagon.png></img></div>","77,90","850","90","practice","63","<div class = stopbox><div class = centered-shape id = stop-signal></div><div class = centered-shape id = stop-signal-inner></div></div>","250","go","500","",""
"","-1","-1","500","0","fixation","poldrack-single-stim","159","222599","0.0-2.3-9.3","stop_signal","","practice","<div class = shapebox><div class = fixation>+</div></div>","none","500","","","","","","","","",""
"","491","90","1850","0","stim","stop-signal","160","224459","0.0-2.3-10.3","stop_signal","","practice","<div class = shapebox><img class = stim src = /static/experiments/stop_signal/images/pentagon.png></img></div>","77,90","850","90","practice","64","<div class = stopbox><div class = centered-shape id = stop-signal></div><div class = centered-shape id = stop-signal-inner></div></div>","250","go","500","",""
"","-1","-1","500","0","fixation","poldrack-single-stim","161","224966","0.0-2.3-11.3","stop_signal","","practice","<div class = shapebox><div class = fixation>+</div></div>","none","500","","","","","","","","",""
"","483","90","1850","0","stim","stop-signal","162","226824","0.0-2.3-12.3","stop_signal","","practice","<div class = shapebox><img class = stim src = /static/experiments/stop_signal/images/hourglass.png></img></div>","77,90","850","90","practice","65","<div class = stopbox><div class = centered-shape id = stop-signal></div><div class = centered-shape id = stop-signal-inner></div></div>","250","go","500","",""
"","-1","-1","500","0","fixation","poldrack-single-stim","163","227333","0.0-2.3-13.3","stop_signal","","practice","<div class = shapebox><div class = fixation>+</div></div>","none","500","","","","","","","","",""
"","468","77","1850","0","stim","stop-signal","164","229190","0.0-2.3-14.3","stop_signal","","practice","<div class = shapebox><img class = stim src = /static/experiments/stop_signal/images/square.png></img></div>","77,90","850","77","practice","66","<div class = stopbox><div class = centered-shape id = stop-signal></div><div class = centered-shape id = stop-signal-inner></div></div>","250","stop","500","",""
"","-1","-1","500","0","fixation","poldrack-single-stim","165","229707","0.0-2.3-15.3","stop_signal","","practice","<div class = shapebox><div class = fixation>+</div></div>","none","500","","","","","","","","",""
"","591","77","1850","0","stim","stop-signal","166","231569","0.0-2.3-16.3","stop_signal","","practice","<div class = shapebox><img class = stim src = /static/experiments/stop_signal/images/tear.png></img></div>","77,90","850","77","practice","67","<div class = stopbox><div class = centered-shape id = stop-signal></div><div class = centered-shape id = stop-signal-inner></div></div>","250","go","500","",""
"","-1","-1","500","0","fixation","poldrack-single-stim","167","232071","0.0-2.3-17.3","stop_signal","","practice","<div class = shapebox><div class = fixation>+</div></div>","none","500","","","","","","","","",""
"","443","77","1850","0","stim","stop-signal","168","233926","0.0-2.3-18.3","stop_signal","","practice","<div class = shapebox><img class = stim src = /static/experiments/stop_signal/images/tear.png></img></div>","77,90","850","77","practice","68","<div class = stopbox><div class = centered-shape id = stop-signal></div><div class = centered-shape id = stop-signal-inner></div></div>","250","go","500","",""
"","-1","-1","500","0","fixation","poldrack-single-stim","169","234441","0.0-2.3-19.3","stop_signal","","practice","<div class = shapebox><div class = fixation>+</div></div>","none","500","","","","","","","","",""
"","479","90","1850","0","stim","stop-signal","170","236307","0.0-2.3-20.3","stop_signal","","practice","<div class = shapebox><img class = stim src = /static/experiments/stop_signal/images/hourglass.png></img></div>","77,90","850","90","practice","69","<div class = stopbox><div class = centered-shape id = stop-signal></div><div class = centered-shape id = stop-signal-inner></div></div>","250","stop","500","",""
"","-1","-1","500","0","fixation","poldrack-single-stim","171","236816","0.0-2.3-21.3","stop_signal","","practice","<div class = shapebox><div class = fixation>+</div></div>","none","500","","","","","","","","",""
"","561","77","1850","0","stim","stop-signal","172","238677","0.0-2.3-22.3","stop_signal","","practice","<div class = shapebox><img class = stim src = /static/experiments/stop_signal/images/tear.png></img></div>","77,90","850","77","practice","70","<div class = stopbox><div class = centered-shape id = stop-signal></div><div class = centered-shape id = stop-signal-inner></div></div>","250","go","500","",""
"","-1","-1","500","0","fixation","poldrack-single-stim","173","239184","0.0-2.3-23.3","stop_signal","","practice","<div class = shapebox><div class = fixation>+</div></div>","none","500","","","","","","","","",""
"","603","77","1850","0","stim","stop-signal","174","241047","0.0-2.3-24.3","stop_signal","","practice","<div class = shapebox><img class = stim src = /static/experiments/stop_signal/images/pentagon.png></img></div>","77,90","850","90","practice","71","<div class = stopbox><div class = centered-shape id = stop-signal></div><div class = centered-shape id = stop-signal-inner></div></div>","250","go","500","",""
"","-1","-1","500","0","fixation","poldrack-single-stim","175","241550","0.0-2.3-25.3","stop_signal","","practice","<div class = shapebox><div class = fixation>+</div></div>","none","500","","","","","","","","",""
"","403","77","1850","0","stim","stop-signal","176","243414","0.0-2.3-26.3","stop_signal","","practice","<div class = shapebox><img class = stim src = /static/experiments/stop_signal/images/square.png></img></div>","77,90","850","77","practice","72","<div class = stopbox><div class = centered-shape id = stop-signal></div><div class = centered-shape id = stop-signal-inner></div></div>","250","go","500","",""
"","-1","-1","500","0","fixation","poldrack-single-stim","177","243924","0.0-2.3-27.3","stop_signal","","practice","<div class = shapebox><div class = fixation>+</div></div>","none","500","","","","","","","","",""
"","422","90","1850","0","stim","stop-signal","178","245785","0.0-2.3-28.3","stop_signal","","practice","<div class = shapebox><img class = stim src = /static/experiments/stop_signal/images/hourglass.png></img></div>","77,90","850","90","practice","73","<div class = stopbox><div class = centered-shape id = stop-signal></div><div class = centered-shape id = stop-signal-inner></div></div>","250","go","500","",""
"","-1","-1","500","0","fixation","poldrack-single-stim","179","246301","0.0-2.3-29.3","stop_signal","","practice","<div class = shapebox><div class = fixation>+</div></div>","none","500","","","","","","","","",""
"","421","77","1850","0","stim","stop-signal","180","248158","0.0-2.3-30.3","stop_signal","","practice","<div class = shapebox><img class = stim src = /static/experiments/stop_signal/images/square.png></img></div>","77,90","850","77","practice","74","<div class = stopbox><div class = centered-shape id = stop-signal></div><div class = centered-shape id = stop-signal-inner></div></div>","250","go","500","",""
"","-1","-1","500","0","fixation","poldrack-single-stim","181","248662","0.0-2.3-31.3","stop_signal","","practice","<div class = shapebox><div class = fixation>+</div></div>","none","500","","","","","","","","",""
"","883","77","1850","0","stim","stop-signal","182","250529","0.0-2.3-32.3","stop_signal","","practice","<div class = shapebox><img class = stim src = /static/experiments/stop_signal/images/tear.png></img></div>","77,90","850","77","practice","75","<div class = stopbox><div class = centered-shape id = stop-signal></div><div class = centered-shape id = stop-signal-inner></div></div>","250","stop","500","",""
"","-1","-1","500","0","fixation","poldrack-single-stim","183","251037","0.0-2.3-33.3","stop_signal","","practice","<div class = shapebox><div class = fixation>+</div></div>","none","500","","","","","","","","",""
"","604","90","1850","0","stim","stop-signal","184","252894","0.0-2.3-34.3","stop_signal","","practice","<div class = shapebox><img class = stim src = /static/experiments/stop_signal/images/tear.png></img></div>","77,90","850","77","practice","76","<div class = stopbox><div class = centered-shape id = stop-signal></div><div class = centered-shape id = stop-signal-inner></div></div>","250","go","500","",""
"","-1","-1","500","0","fixation","poldrack-single-stim","185","253410","0.0-2.3-35.3","stop_signal","","practice","<div class = shapebox><div class = fixation>+</div></div>","none","500","","","","","","","","",""
"","527","77","1850","0","stim","stop-signal","186","255271","0.0-2.3-36.3","stop_signal","","practice","<div class = shapebox><img class = stim src = /static/experiments/stop_signal/images/square.png></img></div>","77,90","850","77","practice","77","<div class = stopbox><div class = centered-shape id = stop-signal></div><div class = centered-shape id = stop-signal-inner></div></div>","250","go","500","",""
"","-1","-1","500","0","fixation","poldrack-single-stim","187","255787","0.0-2.3-37.3","stop_signal","","practice","<div class = shapebox><div class = fixation>+</div></div>","none","500","","","","","","","","",""
"","478","90","1850","0","stim","stop-signal","188","257654","0.0-2.3-38.3","stop_signal","","practice","<div class = shapebox><img class = stim src = /static/experiments/stop_signal/images/hourglass.png></img></div>","77,90","850","90","practice","78","<div class = stopbox><div class = centered-shape id = stop-signal></div><div class = centered-shape id = stop-signal-inner></div></div>","250","stop","500","",""
"","-1","-1","500","0","fixation","poldrack-single-stim","189","258162","0.0-2.3-39.3","stop_signal","","practice","<div class = shapebox><div class = fixation>+</div></div>","none","500","","","","","","","","",""
"","648","90","1850","0","stim","stop-signal","190","260023","0.0-2.3-40.3","stop_signal","","practice","<div class = shapebox><img class = stim src = /static/experiments/stop_signal/images/pentagon.png></img></div>","77,90","850","90","practice","79","<div class = stopbox><div class = centered-shape id = stop-signal></div><div class = centered-shape id = stop-signal-inner></div></div>","250","go","500","",""
"<div class = centerbox><p class = block-text></p><p class = block-text><strong>Average reaction time:  511 ms. Accuracy for non-star trials: 86%</strong></p><p class = block-text>We will try another practice block. </p><p class = block-text><strong>Remember to try and withhold your response when you see a stop signal.</strong></p><p class = block-text>Press <strong>Enter</strong> to continue</p></div>","1011","13","1011","1000","feedback","poldrack-text","191","261035","0.0-2.4-0.4","stop_signal","","practice","","","","","","","","","","","",""
"","-1","-1","500","0","fixation","poldrack-single-stim","192","262548","0.0-2.4-1.4","stop_signal","","practice","<div class = shapebox><div class = fixation>+</div></div>","none","500","","","","","","","","",""
"","566","90","1850","0","stim","stop-signal","193","264410","0.0-2.4-2.4","stop_signal","","practice","<div class = shapebox><img class = stim src = /static/experiments/stop_signal/images/pentagon.png></img></div>","77,90","850","90","practice","80","<div class = stopbox><div class = centered-shape id = stop-signal></div><div class = centered-shape id = stop-signal-inner></div></div>","250","go","500","",""
"","-1","-1","500","0","fixation","poldrack-single-stim","194","264920","0.0-2.4-3.4","stop_signal","","practice","<div class = shapebox><div class = fixation>+</div></div>","none","500","","","","","","","","",""
"","440","77","1850","0","stim","stop-signal","195","266778","0.0-2.4-4.4","stop_signal","","practice","<div class = shapebox><img class = stim src = /static/experiments/stop_signal/images/square.png></img></div>","77,90","850","77","practice","81","<div class = stopbox><div class = centered-shape id = stop-signal></div><div class = centered-shape id = stop-signal-inner></div></div>","250","go","500","",""
"","-1","-1","500","0","fixation","poldrack-single-stim","196","267286","0.0-2.4-5.4","stop_signal","","practice","<div class = shapebox><div class = fixation>+</div></div>","none","500","","","","","","","","",""
"","412","77","1850","0","stim","stop-signal","197","269148","0.0-2.4-6.4","stop_signal","","practice","<div class = shapebox><img class = stim src = /static/experiments/stop_signal/images/square.png></img></div>","77,90","850","77","practice","82","<div class = stopbox><div class = centered-shape id = stop-signal></div><div class = centered-shape id = stop-signal-inner></div></div>","250","go","500","",""
"","-1","-1","500","0","fixation","poldrack-single-stim","198","269650","0.0-2.4-7.4","stop_signal","","practice","<div class = shapebox><div class = fixation>+</div></div>","none","500","","","","","","","","",""
"","503","77","1850","0","stim","stop-signal","199","271509","0.0-2.4-8.4","stop_signal","","practice","<div class = shapebox><img class = stim src = /static/experiments/stop_signal/images/tear.png></img></div>","77,90","850","77","practice","83","<div class = stopbox><div class = centered-shape id = stop-signal></div><div class = centered-shape id = stop-signal-inner></div></div>","250","go","500","",""
"","-1","-1","500","0","fixation","poldrack-single-stim","200","272021","0.0-2.4-9.4","stop_signal","","practice","<div class = shapebox><div class = fixation>+</div></div>","none","500","","","","","","","","",""
"","404","77","1850","0","stim","stop-signal","201","273873","0.0-2.4-10.4","stop_signal","","practice","<div class = shapebox><img class = stim src = /static/experiments/stop_signal/images/tear.png></img></div>","77,90","850","77","practice","84","<div class = stopbox><div class = centered-shape id = stop-signal></div><div class = centered-shape id = stop-signal-inner></div></div>","250","stop","500","",""
"","-1","-1","500","0","fixation","poldrack-single-stim","202","274378","0.0-2.4-11.4","stop_signal","","practice","<div class = shapebox><div class = fixation>+</div></div>","none","500","","","","","","","","",""
"","448","77","1850","0","stim","stop-signal","203","276239","0.0-2.4-12.4","stop_signal","","practice","<div class = shapebox><img class = stim src = /static/experiments/stop_signal/images/square.png></img></div>","77,90","850","77","practice","85","<div class = stopbox><div class = centered-shape id = stop-signal></div><div class = centered-shape id = stop-signal-inner></div></div>","250","go","500","",""
"","-1","-1","500","0","fixation","poldrack-single-stim","204","276754","0.0-2.4-13.4","stop_signal","","practice","<div class = shapebox><div class = fixation>+</div></div>","none","500","","","","","","","","",""
"","448","90","1850","0","stim","stop-signal","205","278608","0.0-2.4-14.4","stop_signal","","practice","<div class = shapebox><img class = stim src = /static/experiments/stop_signal/images/pentagon.png></img></div>","77,90","850","90","practice","86","<div class = stopbox><div class = centered-shape id = stop-signal></div><div class = centered-shape id = stop-signal-inner></div></div>","250","stop","500","",""
"","-1","-1","500","0","fixation","poldrack-single-stim","206","279116","0.0-2.4-15.4","stop_signal","","practice","<div class = shapebox><div class = fixation>+</div></div>","none","500","","","","","","","","",""
"","516","90","1850","0","stim","stop-signal","207","280982","0.0-2.4-16.4","stop_signal","","practice","<div class = shapebox><img class = stim src = /static/experiments/stop_signal/images/hourglass.png></img></div>","77,90","850","90","practice","87","<div class = stopbox><div class = centered-shape id = stop-signal></div><div class = centered-shape id = stop-signal-inner></div></div>","250","go","500","",""
"","-1","-1","500","0","fixation","poldrack-single-stim","208","281488","0.0-2.4-17.4","stop_signal","","practice","<div class = shapebox><div class = fixation>+</div></div>","none","500","","","","","","","","",""
"","377","77","1850","0","stim","stop-signal","209","283349","0.0-2.4-18.4","stop_signal","","practice","<div class = shapebox><img class = stim src = /static/experiments/stop_signal/images/square.png></img></div>","77,90","850","77","practice","88","<div class = stopbox><div class = centered-shape id = stop-signal></div><div class = centered-shape id = stop-signal-inner></div></div>","250","go","500","",""
"","-1","-1","500","0","fixation","poldrack-single-stim","210","283857","0.0-2.4-19.4","stop_signal","","practice","<div class = shapebox><div class = fixation>+</div></div>","none","500","","","","","","","","",""
"","465","77","1850","0","stim","stop-signal","211","285716","0.0-2.4-20.4","stop_signal","","practice","<div class = shapebox><img class = stim src = /static/experiments/stop_signal/images/square.png></img></div>","77,90","850","77","practice","89","<div class = stopbox><div class = centered-shape id = stop-signal></div><div class = centered-shape id = stop-signal-inner></div></div>","250","stop","500","",""
"","-1","-1","500","0","fixation","poldrack-single-stim","212","286224","0.0-2.4-21.4","stop_signal","","practice","<div class = shapebox><div class = fixation>+</div></div>","none","500","","","","","","","","",""
"","475","90","1850","0","stim","stop-signal","213","288080","0.0-2.4-22.4","stop_signal","","practice","<div class = shapebox><img class = stim src = /static/experiments/stop_signal/images/hourglass.png></img></div>","77,90","850","90","practice","90","<div class = stopbox><div class = centered-shape id = stop-signal></div><div class = centered-shape id = stop-signal-inner></div></div>","250","go","500","",""
"","-1","-1","500","0","fixation","poldrack-single-stim","214","288583","0.0-2.4-23.4","stop_signal","","practice","<div class = shapebox><div class = fixation>+</div></div>","none","500","","","","","","","","",""
"","475","90","1850","0","stim","stop-signal","215","290443","0.0-2.4-24.4","stop_signal","","practice","<div class = shapebox><img class = stim src = /static/experiments/stop_signal/images/hourglass.png></img></div>","77,90","850","90","practice","91","<div class = stopbox><div class = centered-shape id = stop-signal></div><div class = centered-shape id = stop-signal-inner></div></div>","250","go","500","",""
"","-1","-1","500","0","fixation","poldrack-single-stim","216","290953","0.0-2.4-25.4","stop_signal","","practice","<div class = shapebox><div class = fixation>+</div></div>","none","500","","","","","","","","",""
"","673","90","1850","0","stim","stop-signal","217","292806","0.0-2.4-26.4","stop_signal","","practice","<div class = shapebox><img class = stim src = /static/experiments/stop_signal/images/pentagon.png></img></div>","77,90","850","90","practice","92","<div class = stopbox><div class = centered-shape id = stop-signal></div><div class = centered-shape id = stop-signal-inner></div></div>","250","go","500","",""
"","-1","-1","500","0","fixation","poldrack-single-stim","218","293316","0.0-2.4-27.4","stop_signal","","practice","<div class = shapebox><div class = fixation>+</div></div>","none","500","","","","","","","","",""
"","694","77","1850","0","stim","stop-signal","219","295175","0.0-2.4-28.4","stop_signal","","practice","<div class = shapebox><img class = stim src = /static/experiments/stop_signal/images/tear.png></img></div>","77,90","850","77","practice","93","<div class = stopbox><div class = centered-shape id = stop-signal></div><div class = centered-shape id = stop-signal-inner></div></div>","250","stop","500","",""
"","-1","-1","500","0","fixation","poldrack-single-stim","220","295690","0.0-2.4-29.4","stop_signal","","practice","<div class = shapebox><div class = fixation>+</div></div>","none","500","","","","","","","","",""
"","576","90","1850","0","stim","stop-signal","221","297544","0.0-2.4-30.4","stop_signal","","practice","<div class = shapebox><img class = stim src = /static/experiments/stop_signal/images/pentagon.png></img></div>","77,90","850","90","practice","94","<div class = stopbox><div class = centered-shape id = stop-signal></div><div class = centered-shape id = stop-signal-inner></div></div>","250","stop","500","",""
"","-1","-1","500","0","fixation","poldrack-single-stim","222","298050","0.0-2.4-31.4","stop_signal","","practice","<div class = shapebox><div class = fixation>+</div></div>","none","500","","","","","","","","",""
"","513","90","1850","0","stim","stop-signal","223","299906","0.0-2.4-32.4","stop_signal","","practice","<div class = shapebox><img class = stim src = /static/experiments/stop_signal/images/pentagon.png></img></div>","77,90","850","90","practice","95","<div class = stopbox><div class = centered-shape id = stop-signal></div><div class = centered-shape id = stop-signal-inner></div></div>","250","go","500","",""
"","-1","-1","500","0","fixation","poldrack-single-stim","224","300411","0.0-2.4-33.4","stop_signal","","practice","<div class = shapebox><div class = fixation>+</div></div>","none","500","","","","","","","","",""
"","560","90","1850","0","stim","stop-signal","225","302267","0.0-2.4-34.4","stop_signal","","practice","<div class = shapebox><img class = stim src = /static/experiments/stop_signal/images/hourglass.png></img></div>","77,90","850","90","practice","96","<div class = stopbox><div class = centered-shape id = stop-signal></div><div class = centered-shape id = stop-signal-inner></div></div>","250","go","500","",""
"","-1","-1","500","0","fixation","poldrack-single-stim","226","302773","0.0-2.4-35.4","stop_signal","","practice","<div class = shapebox><div class = fixation>+</div></div>","none","500","","","","","","","","",""
"","524","77","1850","0","stim","stop-signal","227","304628","0.0-2.4-36.4","stop_signal","","practice","<div class = shapebox><img class = stim src = /static/experiments/stop_signal/images/tear.png></img></div>","77,90","850","77","practice","97","<div class = stopbox><div class = centered-shape id = stop-signal></div><div class = centered-shape id = stop-signal-inner></div></div>","250","go","500","",""
"","-1","-1","500","0","fixation","poldrack-single-stim","228","305132","0.0-2.4-37.4","stop_signal","","practice","<div class = shapebox><div class = fixation>+</div></div>","none","500","","","","","","","","",""
"","597","77","1850","0","stim","stop-signal","229","306989","0.0-2.4-38.4","stop_signal","","practice","<div class = shapebox><img class = stim src = /static/experiments/stop_signal/images/tear.png></img></div>","77,90","850","77","practice","98","<div class = stopbox><div class = centered-shape id = stop-signal></div><div class = centered-shape id = stop-signal-inner></div></div>","250","go","500","",""
"","-1","-1","500","0","fixation","poldrack-single-stim","230","307492","0.0-2.4-39.4","stop_signal","","practice","<div class = shapebox><div class = fixation>+</div></div>","none","500","","","","","","","","",""
"","462","90","1850","0","stim","stop-signal","231","309348","0.0-2.4-40.4","stop_signal","","practice","<div class = shapebox><img class = stim src = /static/experiments/stop_signal/images/hourglass.png></img></div>","77,90","850","90","practice","99","<div class = stopbox><div class = centered-shape id = stop-signal></div><div class = centered-shape id = stop-signal-inner></div></div>","250","stop","500","",""
"<div class = centerbox><p class = block-text></p><p class = block-text><strong>Average reaction time:  508 ms. Accuracy for non-star trials: 100%</strong></p><p class = block-text>Done with practice. We will now begin the 12 test blocks. There will be a break after each block. Press <strong>enter</strong> to continue.</p></div>","1325","13","1325","1000","feedback","poldrack-text","232","310675","0.0-3.0","stop_signal","","practice","","","","","","","","","","","",""
"","-1","-1","500","0","fixation","poldrack-single-stim","233","312191","0.0-4.0","stop_signal","","test","<div class = centerbox><div class = fixation>+</div></div>","none","500","","","","","","","","",""
"","482","77","1850","0","stim","stop-signal","234","314045","0.0-5.0","stop_signal","","test","<div class = shapebox><img class = stim src = /static/experiments/stop_signal/images/pentagon.png></img></div>","77,90","850","90","high","0","<div class = stopbox><div class = centered-shape id = stop-signal></div><div class = centered-shape id = stop-signal-inner></div></div>","250","stop","500","",""
"","-1","-1","500","0","fixation","poldrack-single-stim","235","314551","0.0-6.0","stop_signal","","test","<div class = centerbox><div class = fixation>+</div></div>","none","500","","","","","","","","",""
"","619","77","1850","0","stim","stop-signal","236","316415","0.0-7.0","stop_signal","","test","<div class = shapebox><img class = stim src = /static/experiments/stop_signal/images/tear.png></img></div>","77,90","850","77","high","1","<div class = stopbox><div class = centered-shape id = stop-signal></div><div class = centered-shape id = stop-signal-inner></div></div>","200","stop","500","",""
"","-1","-1","500","0","fixation","poldrack-single-stim","237","316921","0.0-8.0","stop_signal","","test","<div class = centerbox><div class = fixation>+</div></div>","none","500","","","","","","","","",""
"","546","77","1850","0","stim","stop-signal","238","318778","0.0-9.0","stop_signal","","test","<div class = shapebox><img class = stim src = /static/experiments/stop_signal/images/tear.png></img></div>","77,90","850","77","high","2","<div class = stopbox><div class = centered-shape id = stop-signal></div><div class = centered-shape id = stop-signal-inner></div></div>","150","stop","500","",""
"","-1","-1","500","0","fixation","poldrack-single-stim","239","319287","0.0-10.0","stop_signal","","test","<div class = centerbox><div class = fixation>+</div></div>","none","500","","","","","","","","",""
"","483","90","1850","0","stim","stop-signal","240","321138","0.0-11.0","stop_signal","","test","<div class = shapebox><img class = stim src = /static/experiments/stop_signal/images/hourglass.png></img></div>","77,90","850","90","high","3","<div class = stopbox><div class = centered-shape id = stop-signal></div><div class = centered-shape id = stop-signal-inner></div></div>","100","stop","500","",""
"","-1","-1","500","0","fixation","poldrack-single-stim","241","321648","0.0-12.0","stop_signal","","test","<div class = centerbox><div class = fixation>+</div></div>","none","500","","","","","","","","",""
"","771","90","1850","0","stim","stop-signal","242","323506","0.0-13.0","stop_signal","","test","<div class = shapebox><img class = stim src = /static/experiments/stop_signal/images/pentagon.png></img></div>","77,90","850","90","high","4","<div class = stopbox><div class = centered-shape id = stop-signal></div><div class = centered-shape id = stop-signal-inner></div></div>","50","go","500","",""
"","-1","-1","500","0","fixation","poldrack-single-stim","243","324014","0.0-14.0","stop_signal","","test","<div class = centerbox><div class = fixation>+</div></div>","none","500","","","","","","","","",""
"","460","77","1850","0","stim","stop-signal","244","325866","0.0-15.0","stop_signal","","test","<div class = shapebox><img class = stim src = /static/experiments/stop_signal/images/square.png></img></div>","77,90","850","77","high","5","<div class = stopbox><div class = centered-shape id = stop-signal></div><div class = centered-shape id = stop-signal-inner></div></div>","50","go","500","",""
"","-1","-1","500","0","fixation","poldrack-single-stim","245","326373","0.0-16.0","stop_signal","","test","<div class = centerbox><div class = fixation>+</div></div>","none","500","","","","","","","","",""
"","797","90","1850","0","stim","stop-signal","246","328238","0.0-17.0","stop_signal","","test","<div class = shapebox><img class = stim src = /static/experiments/stop_signal/images/pentagon.png></img></div>","77,90","850","90","high","6","<div class = stopbox><div class = centered-shape id = stop-signal></div><div class = centered-shape id = stop-signal-inner></div></div>","50","go","500","",""
"","-1","-1","500","0","fixation","poldrack-single-stim","247","328742","0.0-18.0","stop_signal","","test","<div class = centerbox><div class = fixation>+</div></div>","none","500","","","","","","","","",""
"","419","77","1850","0","stim","stop-signal","248","330603","0.0-19.0","stop_signal","","test","<div class = shapebox><img class = stim src = /static/experiments/stop_signal/images/square.png></img></div>","77,90","850","77","high","7","<div class = stopbox><div class = centered-shape id = stop-signal></div><div class = centered-shape id = stop-signal-inner></div></div>","50","go","500","",""
"","-1","-1","500","0","fixation","poldrack-single-stim","249","331113","0.0-20.0","stop_signal","","test","<div class = centerbox><div class = fixation>+</div></div>","none","500","","","","","","","","",""
"","441","77","1850","0","stim","stop-signal","250","332975","0.0-21.0","stop_signal","","test","<div class = shapebox><img class = stim src = /static/experiments/stop_signal/images/square.png></img></div>","77,90","850","77","high","8","<div class = stopbox><div class = centered-shape id = stop-signal></div><div class = centered-shape id = stop-signal-inner></div></div>","50","go","500","",""
"","-1","-1","500","0","fixation","poldrack-single-stim","251","333484","0.0-22.0","stop_signal","","test","<div class = centerbox><div class = fixation>+</div></div>","none","500","","","","","","","","",""
"","533","90","1850","0","stim","stop-signal","252","335346","0.0-23.0","stop_signal","","test","<div class = shapebox><img class = stim src = /static/experiments/stop_signal/images/hourglass.png></img></div>","77,90","850","90","high","9","<div class = stopbox><div class = centered-shape id = stop-signal></div><div class = centered-shape id = stop-signal-inner></div></div>","50","go","500","",""
"","-1","-1","500","0","fixation","poldrack-single-stim","253","335847","0.0-24.0","stop_signal","","test","<div class = centerbox><div class = fixation>+</div></div>","none","500","","","","","","","","",""
"","579","77","1850","0","stim","stop-signal","254","337700","0.0-25.0","stop_signal","","test","<div class = shapebox><img class = stim src = /static/experiments/stop_signal/images/pentagon.png></img></div>","77,90","850","90","high","10","<div class = stopbox><div class = centered-shape id = stop-signal></div><div class = centered-shape id = stop-signal-inner></div></div>","50","go","500","",""
"","-1","-1","500","0","fixation","poldrack-single-stim","255","338210","0.0-26.0","stop_signal","","test","<div class = centerbox><div class = fixation>+</div></div>","none","500","","","","","","","","",""
"","705","77","1850","0","stim","stop-signal","256","340065","0.0-27.0","stop_signal","","test","<div class = shapebox><img class = stim src = /static/experiments/stop_signal/images/tear.png></img></div>","77,90","850","77","high","11","<div class = stopbox><div class = centered-shape id = stop-signal></div><div class = centered-shape id = stop-signal-inner></div></div>","50","stop","500","",""
"","-1","-1","500","0","fixation","poldrack-single-stim","257","340569","0.0-28.0","stop_signal","","test","<div class = centerbox><div class = fixation>+</div></div>","none","500","","","","","","","","",""
"","464","77","1850","0","stim","stop-signal","258","342436","0.0-29.0","stop_signal","","test","<div class = shapebox><img class = stim src = /static/experiments/stop_signal/images/tear.png></img></div>","77,90","850","77","high","12","<div class = stopbox><div class = centered-shape id = stop-signal></div><div class = centered-shape id = stop-signal-inner></div></div>","0","go","500","",""
"","-1","-1","500","0","fixation","poldrack-single-stim","259","342943","0.0-30.0","stop_signal","","test","<div class = centerbox><div class = fixation>+</div></div>","none","500","","","","","","","","",""
"","419","77","1850","0","stim","stop-signal","260","344808","0.0-31.0","stop_signal","","test","<div class = shapebox><img class = stim src = /static/experiments/stop_signal/images/square.png></img></div>","77,90","850","77","high","13","<div class = stopbox><div class = centered-shape id = stop-signal></div><div class = centered-shape id = stop-signal-inner></div></div>","0","go","500","",""
"","-1","-1","500","0","fixation","poldrack-single-stim","261","345318","0.0-32.0","stop_signal","","test","<div class = centerbox><div class = fixation>+</div></div>","none","500","","","","","","","","",""
"","572","77","1850","0","stim","stop-signal","262","347177","0.0-33.0","stop_signal","","test","<div class = shapebox><img class = stim src = /static/experiments/stop_signal/images/tear.png></img></div>","77,90","850","77","high","14","<div class = stopbox><div class = centered-shape id = stop-signal></div><div class = centered-shape id = stop-signal-inner></div></div>","0","go","500","",""
"","-1","-1","500","0","fixation","poldrack-single-stim","263","347693","0.0-34.0","stop_signal","","test","<div class = centerbox><div class = fixation>+</div></div>","none","500","","","","","","","","",""
"","493","77","1850","0","stim","stop-signal","264","349552","0.0-35.0","stop_signal","","test","<div class = shapebox><img class = stim src = /static/experiments/stop_signal/images/square.png></img></div>","77,90","850","77","high","15","<div class = stopbox><div class = centered-shape id = stop-signal></div><div class = centered-shape id = stop-signal-inner></div></div>","0","stop","500","",""
"","-1","-1","500","0","fixation","poldrack-single-stim","265","350058","0.0-36.0","stop_signal","","test","<div class = centerbox><div class = fixation>+</div></div>","none","500","","","","","","","","",""
"","424","77","1850","0","stim","stop-signal","266","351918","0.0-37.0","stop_signal","","test","<div class = shapebox><img class = stim src = /static/experiments/stop_signal/images/square.png></img></div>","77,90","850","77","high","16","<div class = stopbox><div class = centered-shape id = stop-signal></div><div class = centered-shape id = stop-signal-inner></div></div>","0","stop","500","",""
"","-1","-1","500","0","fixation","poldrack-single-stim","267","352427","0.0-38.0","stop_signal","","test","<div class = centerbox><div class = fixation>+</div></div>","none","500","","","","","","","","",""
"","479","77","1850","0","stim","stop-signal","268","354287","0.0-39.0","stop_signal","","test","<div class = shapebox><img class = stim src = /static/experiments/stop_signal/images/pentagon.png></img></div>","77,90","850","90","high","17","<div class = stopbox><div class = centered-shape id = stop-signal></div><div class = centered-shape id = stop-signal-inner></div></div>","0","stop","500","",""
"","-1","-1","500","0","fixation","poldrack-single-stim","269","354791","0.0-40.0","stop_signal","","test","<div class = centerbox><div class = fixation>+</div></div>","none","500","","","","","","","","",""
"","635","90","1850","0","stim","stop-signal","270","356647","0.0-41.0","stop_signal","","test","<div class = shapebox><img class = stim src = /static/experiments/stop_signal/images/hourglass.png></img></div>","77,90","850","90","high","18","<div class = stopbox><div class = centered-shape id = stop-signal></div><div class = centered-shape id = stop-signal-inner></div></div>","0","go","500","",""
"","-1","-1","500","0","fixation","poldrack-single-stim","271","357153","0.0-42.0","stop_signal","","test","<div class = centerbox><div class = fixation>+</div></div>","none","500","","","","","","","","",""
"","546","77","1850","0","stim","stop-signal","272","359019","0.0-43.0","stop_signal","","test","<div class = shapebox><img class = stim src = /static/experiments/stop_signal/images/square.png></img></div>","77,90","850","77","high","19","<div class = stopbox><div class = centered-shape id = stop-signal></div><div class = centered-shape id = stop-signal-inner></div></div>","0","stop","500","",""
"","-1","-1","500","0","fixation","poldrack-single-stim","273","359526","0.0-44.0","stop_signal","","test","<div class = centerbox><div class = fixation>+</div></div>","none","500","","","","","","","","",""
"","587","90","1850","0","stim","stop-signal","274","361389","0.0-45.0","stop_signal","","test","<div class = shapebox><img class = stim src = /static/experiments/stop_signal/images/hourglass.png></img></div>","77,90","850","90","high","20","<div class = stopbox><div class = centered-shape id = stop-signal></div><div class = centered-shape id = stop-signal-inner></div></div>","0","go","500","",""
"","-1","-1","500","0","fixation","poldrack-single-stim","275","361899","0.0-46.0","stop_signal","","test","<div class = centerbox><div class = fixation>+</div></div>","none","500","","","","","","","","",""
"","527","90","1850","0","stim","stop-signal","276","363759","0.0-47.0","stop_signal","","test","<div class = shapebox><img class = stim src = /static/experiments/stop_signal/images/pentagon.png></img></div>","77,90","850","90","high","21","<div class = stopbox><div class = centered-shape id = stop-signal></div><div class = centered-shape id = stop-signal-inner></div></div>","0","stop","500","",""
"","-1","-1","500","0","fixation","poldrack-single-stim","277","364269","0.0-48.0","stop_signal","","test","<div class = centerbox><div class = fixation>+</div></div>","none","500","","","","","","","","",""
"","478","77","1850","0","stim","stop-signal","278","366121","0.0-49.0","stop_signal","","test","<div class = shapebox><img class = stim src = /static/experiments/stop_signal/images/square.png></img></div>","77,90","850","77","high","22","<div class = stopbox><div class = centered-shape id = stop-signal></div><div class = centered-shape id = stop-signal-inner></div></div>","0","go","500","",""
"","-1","-1","500","0","fixation","poldrack-single-stim","279","366629","0.0-50.0","stop_signal","","test","<div class = centerbox><div class = fixation>+</div></div>","none","500","","","","","","","","",""
"","597","90","1850","0","stim","stop-signal","280","368481","0.0-51.0","stop_signal","","test","<div class = shapebox><img class = stim src = /static/experiments/stop_signal/images/pentagon.png></img></div>","77,90","850","90","high","23","<div class = stopbox><div class = centered-shape id = stop-signal></div><div class = centered-shape id = stop-signal-inner></div></div>","0","stop","500","",""
"","-1","-1","500","0","fixation","poldrack-single-stim","281","368987","0.0-52.0","stop_signal","","test","<div class = centerbox><div class = fixation>+</div></div>","none","500","","","","","","","","",""
"","454","90","1850","0","stim","stop-signal","282","370848","0.0-53.0","stop_signal","","test","<div class = shapebox><img class = stim src = /static/experiments/stop_signal/images/pentagon.png></img></div>","77,90","850","90","high","24","<div class = stopbox><div class = centered-shape id = stop-signal></div><div class = centered-shape id = stop-signal-inner></div></div>","0","go","500","",""
"","-1","-1","500","0","fixation","poldrack-single-stim","283","371350","0.0-54.0","stop_signal","","test","<div class = centerbox><div class = fixation>+</div></div>","none","500","","","","","","","","",""
"","532","90","1850","0","stim","stop-signal","284","373214","0.0-55.0","stop_signal","","test","<div class = shapebox><img class = stim src = /static/experiments/stop_signal/images/hourglass.png></img></div>","77,90","850","90","high","25","<div class = stopbox><div class = centered-shape id = stop-signal></div><div class = centered-shape id = stop-signal-inner></div></div>","0","stop","500","",""
"","-1","-1","500","0","fixation","poldrack-single-stim","285","373723","0.0-56.0","stop_signal","","test","<div class = centerbox><div class = fixation>+</div></div>","none","500","","","","","","","","",""
"","424","90","1850","0","stim","stop-signal","286","375584","0.0-57.0","stop_signal","","test","<div class = shapebox><img class = stim src = /static/experiments/stop_signal/images/hourglass.png></img></div>","77,90","850","90","high","26","<div class = stopbox><div class = centered-shape id = stop-signal></div><div class = centered-shape id = stop-signal-inner></div></div>","0","go","500","",""
"","-1","-1","500","0","fixation","poldrack-single-stim","287","376092","0.0-58.0","stop_signal","","test","<div class = centerbox><div class = fixation>+</div></div>","none","500","","","","","","","","",""
"","454","77","1850","0","stim","stop-signal","288","377953","0.0-59.0","stop_signal","","test","<div class = shapebox><img class = stim src = /static/experiments/stop_signal/images/square.png></img></div>","77,90","850","77","high","27","<div class = stopbox><div class = centered-shape id = stop-signal></div><div class = centered-shape id = stop-signal-inner></div></div>","0","stop","500","",""
"","-1","-1","500","0","fixation","poldrack-single-stim","289","378458","0.0-60.0","stop_signal","","test","<div class = centerbox><div class = fixation>+</div></div>","none","500","","","","","","","","",""
"","471","90","1850","0","stim","stop-signal","290","380322","0.0-61.0","stop_signal","","test","<div class = shapebox><img class = stim src = /static/experiments/stop_signal/images/tear.png></img></div>","77,90","850","77","high","28","<div class = stopbox><div class = centered-shape id = stop-signal></div><div class = centered-shape id = stop-signal-inner></div></div>","0","go","500","",""
"","-1","-1","500","0","fixation","poldrack-single-stim","291","380831","0.0-62.0","stop_signal","","test","<div class = centerbox><div class = fixation>+</div></div>","none","500","","","","","","","","",""
"","412","77","1850","0","stim","stop-signal","292","382696","0.0-63.0","stop_signal","","test","<div class = shapebox><img class = stim src = /static/experiments/stop_signal/images/square.png></img></div>","77,90","850","77","high","29","<div class = stopbox><div class = centered-shape id = stop-signal></div><div class = centered-shape id = stop-signal-inner></div></div>","0","go","500","",""
"","-1","-1","500","0","fixation","poldrack-single-stim","293","383204","0.0-64.0","stop_signal","","test","<div class = centerbox><div class = fixation>+</div></div>","none","500","","","","","","","","",""
"","511","90","1850","0","stim","stop-signal","294","385065","0.0-65.0","stop_signal","","test","<div class = shapebox><img class = stim src = /static/experiments/stop_signal/images/hourglass.png></img></div>","77,90","850","90","high","30","<div class = stopbox><div class = centered-shape id = stop-signal></div><div class = centered-shape id = stop-signal-inner></div></div>","0","go","500","",""
"","-1","-1","500","0","fixation","poldrack-single-stim","295","385567","0.0-66.0","stop_signal","","test","<div class = centerbox><div class = fixation>+</div></div>","none","500","","","","","","","","",""
"","732","90","1850","0","stim","stop-signal","296","387430","0.0-67.0","stop_signal","","test","<div class = shapebox><img class = stim src = /static/experiments/stop_signal/images/tear.png></img></div>","77,90","850","77","high","31","<div class = stopbox><div class = centered-shape id = stop-signal></div><div class = centered-shape id = stop-signal-inner></div></div>","0","go","500","",""
"","-1","-1","500","0","fixation","poldrack-single-stim","297","387940","0.0-68.0","stop_signal","","test","<div class = centerbox><div class = fixation>+</div></div>","none","500","","","","","","","","",""
"","654","90","1850","0","stim","stop-signal","298","389801","0.0-69.0","stop_signal","","test","<div class = shapebox><img class = stim src = /static/experiments/stop_signal/images/hourglass.png></img></div>","77,90","850","90","high","32","<div class = stopbox><div class = centered-shape id = stop-signal></div><div class = centered-shape id = stop-signal-inner></div></div>","0","go","500","",""
"","-1","-1","500","0","fixation","poldrack-single-stim","299","390316","0.0-70.0","stop_signal","","test","<div class = centerbox><div class = fixation>+</div></div>","none","500","","","","","","","","",""
"","517","90","1850","0","stim","stop-signal","300","392176","0.0-71.0","stop_signal","","test","<div class = shapebox><img class = stim src = /static/experiments/stop_signal/images/hourglass.png></img></div>","77,90","850","90","high","33","<div class = stopbox><div class = centered-shape id = stop-signal></div><div class = centered-shape id = stop-signal-inner></div></div>","0","stop","500","",""
"","-1","-1","500","0","fixation","poldrack-single-stim","301","392693","0.0-72.0","stop_signal","","test","<div class = centerbox><div class = fixation>+</div></div>","none","500","","","","","","","","",""
"","558","77","1850","0","stim","stop-signal","302","394546","0.0-73.0","stop_signal","","test","<div class = shapebox><img class = stim src = /static/experiments/stop_signal/images/tear.png></img></div>","77,90","850","77","high","34","<div class = stopbox><div class = centered-shape id = stop-signal></div><div class = centered-shape id = stop-signal-inner></div></div>","0","stop","500","",""
"","-1","-1","500","0","fixation","poldrack-single-stim","303","395052","0.0-74.0","stop_signal","","test","<div class = centerbox><div class = fixation>+</div></div>","none","500","","","","","","","","",""
"","487","77","1850","0","stim","stop-signal","304","396904","0.0-75.0","stop_signal","","test","<div class = shapebox><img class = stim src = /static/experiments/stop_signal/images/tear.png></img></div>","77,90","850","77","high","35","<div class = stopbox><div class = centered-shape id = stop-signal></div><div class = centered-shape id = stop-signal-inner></div></div>","0","go","500","",""
"","-1","-1","500","0","fixation","poldrack-single-stim","305","397410","0.0-76.0","stop_signal","","test","<div class = centerbox><div class = fixation>+</div></div>","none","500","","","","","","","","",""
"","511","77","1850","0","stim","stop-signal","306","399271","0.0-77.0","stop_signal","","test","<div class = shapebox><img class = stim src = /static/experiments/stop_signal/images/tear.png></img></div>","77,90","850","77","high","36","<div class = stopbox><div class = centered-shape id = stop-signal></div><div class = centered-shape id = stop-signal-inner></div></div>","0","go","500","",""
"","-1","-1","500","0","fixation","poldrack-single-stim","307","399781","0.0-78.0","stop_signal","","test","<div class = centerbox><div class = fixation>+</div></div>","none","500","","","","","","","","",""
"","500","90","1850","0","stim","stop-signal","308","401645","0.0-79.0","stop_signal","","test","<div class = shapebox><img class = stim src = /static/experiments/stop_signal/images/hourglass.png></img></div>","77,90","850","90","high","37","<div class = stopbox><div class = centered-shape id = stop-signal></div><div class = centered-shape id = stop-signal-inner></div></div>","0","go","500","",""
"","-1","-1","500","0","fixation","poldrack-single-stim","309","402161","0.0-80.0","stop_signal","","test","<div class = centerbox><div class = fixation>+</div></div>","none","500","","","","","","","","",""
"","745","90","1850","0","stim","stop-signal","310","404025","0.0-81.0","stop_signal","","test","<div class = shapebox><img class = stim src = /static/experiments/stop_signal/images/pentagon.png></img></div>","77,90","850","90","high","38","<div class = stopbox><div class = centered-shape id = stop-signal></div><div class = centered-shape id = stop-signal-inner></div></div>","0","go","500","",""
"","-1","-1","500","0","fixation","poldrack-single-stim","311","404534","0.0-82.0","stop_signal","","test","<div class = centerbox><div class = fixation>+</div></div>","none","500","","","","","","","","",""
"","484","77","1850","0","stim","stop-signal","312","406395","0.0-83.0","stop_signal","","test","<div class = shapebox><img class = stim src = /static/experiments/stop_signal/images/square.png></img></div>","77,90","850","77","high","39","<div class = stopbox><div class = centered-shape id = stop-signal></div><div class = centered-shape id = stop-signal-inner></div></div>","0","stop","500","",""
"","-1","-1","500","0","fixation","poldrack-single-stim","313","406897","0.0-84.0","stop_signal","","test","<div class = centerbox><div class = fixation>+</div></div>","none","500","","","","","","","","",""
"","528","77","1850","0","stim","stop-signal","314","408759","0.0-85.0","stop_signal","","test","<div class = shapebox><img class = stim src = /static/experiments/stop_signal/images/tear.png></img></div>","77,90","850","77","high","40","<div class = stopbox><div class = centered-shape id = stop-signal></div><div class = centered-shape id = stop-signal-inner></div></div>","0","go","500","",""
"","-1","-1","500","0","fixation","poldrack-single-stim","315","409268","0.0-86.0","stop_signal","","test","<div class = centerbox><div class = fixation>+</div></div>","none","500","","","","","","","","",""
"","549","90","1850","0","stim","stop-signal","316","411134","0.0-87.0","stop_signal","","test","<div class = shapebox><img class = stim src = /static/experiments/stop_signal/images/hourglass.png></img></div>","77,90","850","90","high","41","<div class = stopbox><div class = centered-shape id = stop-signal></div><div class = centered-shape id = stop-signal-inner></div></div>","0","go","500","",""
"","-1","-1","500","0","fixation","poldrack-single-stim","317","411645","0.0-88.0","stop_signal","","test","<div class = centerbox><div class = fixation>+</div></div>","none","500","","","","","","","","",""
