"text","rt","key_press","block_duration","timing_post_trial","trial_id","trial_type","trial_index","time_elapsed","internal_node_id","exp_id","view_history","exp_stage","stimulus","possible_responses","stim_duration","correct_response","condition","trial_num","SS_stimulus","SS_delay","SS_trial_type","SS_duration","responses","credit_var"
"<div class = centerbox><p class = center-block-text>Welcome to the experiment. This experiment will take about 30 minutes. Press <strong>enter</strong> to begin.</p></div>","3181","13","3181","0","instruction","poldrack-text","0","3182","0.0-0.0-0.0","stop_signal","","","","","","","","","","","","","",""
"","22343","","","","instruction","poldrack-instructions","1","25525","0.0-0.0-1.0","stop_signal","[{""page_index"":0,""viewing_time"":6604},{""page_index"":1,""viewing_time"":15738}]","","","","","","","","","","","","",""
"<div class = centerbox><p class = block-text>We will now start with a practice session. In this practice  concentrate on responding quickly and accurately to each shape. Press <strong>enter</strong> to continue.</p></div>","4575","13","4575","1000","feedback","poldrack-text","2","31110","0.0-1.0-0.0","stop_signal","","practice","","","","","","","","","","","",""
"","-1","-1","500","0","fixation","poldrack-single-stim","3","32625","0.0-1.0-1.0","stop_signal","","practice","<div class = shapebox><div class = fixation>+</div></div>","none","500","","","","","","","","",""
"","962","77","1850","0","stim","poldrack-single-stim","4","34484","0.0-1.0-2.0","stop_signal","","NoSS_practice","<div class = shapebox><img class = stim src = /static/experiments/stop_signal/images/pentagon.png></img></div>","77,90","850","77","NoSS_practice","0","","","","","",""
"","-1","-1","500","0","fixation","poldrack-single-stim","5","34990","0.0-1.0-3.0","stop_signal","","practice","<div class = shapebox><div class = fixation>+</div></div>","none","500","","","","","","","","",""
"","685","90","1850","0","stim","poldrack-single-stim","6","36847","0.0-1.0-4.0","stop_signal","","NoSS_practice","<div class = shapebox><img class = stim src = /static/experiments/stop_signal/images/hourglass.png></img></div>","77,90","850","90","NoSS_practice","1","","","","","",""
"","-1","-1","500","0","fixation","poldrack-single-stim","7","37354","0.0-1.0-5.0","stop_signal","","practice","<div class = shapebox><div class = fixation>+</div></div>","none","500","","","","","","","","",""
"","753","90","1850","0","stim","poldrack-single-stim","8","39211","0.0-1.0-6.0","stop_signal","","NoSS_practice","<div class = shapebox><img class = stim src = /static/experiments/stop_signal/images/hourglass.png></img></div>","77,90","850","90","NoSS_practice","2","","","","","",""
"","-1","-1","500","0","fixation","poldrack-single-stim","9","39718","0.0-1.0-7.0","stop_signal","","practice","<div class = shapebox><div class = fixation>+</div></div>","none","500","","","","","","","","",""
"","765","77","1850","0","stim","poldrack-single-stim","10","41575","0.0-1.0-8.0","stop_signal","","NoSS_practice","<div class = shapebox><img class = stim src = /static/experiments/stop_signal/images/pentagon.png></img></div>","77,90","850","77","NoSS_practice","3","","","","","",""
"","-1","-1","500","0","fixation","poldrack-single-stim","11","42083","0.0-1.0-9.0","stop_signal","","practice","<div class = shapebox><div class = fixation>+</div></div>","none","500","","","","","","","","",""
"","480","77","1850","0","stim","poldrack-single-stim","12","43939","0.0-1.0-10.0","stop_signal","","NoSS_practice","<div class = shapebox><img class = stim src = /static/experiments/stop_signal/images/tear.png></img></div>","77,90","850","77","NoSS_practice","4","","","","","",""
"","-1","-1","500","0","fixation","poldrack-single-stim","13","44445","0.0-1.0-11.0","stop_signal","","practice","<div class = shapebox><div class = fixation>+</div></div>","none","500","","","","","","","","",""
"","677","90","1850","0","stim","poldrack-single-stim","14","46301","0.0-1.0-12.0","stop_signal","","NoSS_practice","<div class = shapebox><img class = stim src = /static/experiments/stop_signal/images/square.png></img></div>","77,90","850","90","NoSS_practice","5","","","","","",""
"","-1","-1","500","0","fixation","poldrack-single-stim","15","46806","0.0-1.0-13.0","stop_signal","","practice","<div class = shapebox><div class = fixation>+</div></div>","none","500","","","","","","","","",""
"","520","90","1850","0","stim","poldrack-single-stim","16","48660","0.0-1.0-14.0","stop_signal","","NoSS_practice","<div class = shapebox><img class = stim src = /static/experiments/stop_signal/images/square.png></img></div>","77,90","850","90","NoSS_practice","6","","","","","",""
"","-1","-1","500","0","fixation","poldrack-single-stim","17","49164","0.0-1.0-15.0","stop_signal","","practice","<div class = shapebox><div class = fixation>+</div></div>","none","500","","","","","","","","",""
"","970","77","1850","0","stim","poldrack-single-stim","18","51018","0.0-1.0-16.0","stop_signal","","NoSS_practice","<div class = shapebox><img class = stim src = /static/experiments/stop_signal/images/pentagon.png></img></div>","77,90","850","77","NoSS_practice","7","","","","","",""
"","-1","-1","500","0","fixation","poldrack-single-stim","19","51521","0.0-1.0-17.0","stop_signal","","practice","<div class = shapebox><div class = fixation>+</div></div>","none","500","","","","","","","","",""
"","820","90","1850","0","stim","poldrack-single-stim","20","53375","0.0-1.0-18.0","stop_signal","","NoSS_practice","<div class = shapebox><img class = stim src = /static/experiments/stop_signal/images/square.png></img></div>","77,90","850","90","NoSS_practice","8","","","","","",""
"","-1","-1","500","0","fixation","poldrack-single-stim","21","53879","0.0-1.0-19.0","stop_signal","","practice","<div class = shapebox><div class = fixation>+</div></div>","none","500","","","","","","","","",""
"","590","77","1850","0","stim","poldrack-single-stim","22","55733","0.0-1.0-20.0","stop_signal","","NoSS_practice","<div class = shapebox><img class = stim src = /static/experiments/stop_signal/images/tear.png></img></div>","77,90","850","77","NoSS_practice","9","","","","","",""
"","-1","-1","500","0","fixation","poldrack-single-stim","23","56238","0.0-1.0-21.0","stop_signal","","practice","<div class = shapebox><div class = fixation>+</div></div>","none","500","","","","","","","","",""
"","783","77","1850","0","stim","poldrack-single-stim","24","58093","0.0-1.0-22.0","stop_signal","","NoSS_practice","<div class = shapebox><img class = stim src = /static/experiments/stop_signal/images/tear.png></img></div>","77,90","850","77","NoSS_practice","10","","","","","",""
"","-1","-1","500","0","fixation","poldrack-single-stim","25","58597","0.0-1.0-23.0","stop_signal","","practice","<div class = shapebox><div class = fixation>+</div></div>","none","500","","","","","","","","",""
"","623","90","1850","0","stim","poldrack-single-stim","26","60451","0.0-1.0-24.0","stop_signal","","NoSS_practice","<div class = shapebox><img class = stim src = /static/experiments/stop_signal/images/hourglass.png></img></div>","77,90","850","90","NoSS_practice","11","","","","","",""
"<div class = centerbox><p class = block-text></p><p class = block-text><strong>Average reaction time:  719 ms. Accuracy for non-star trials: 100%</strong></p><p class = block-text>For the rest of the experiment, on some proportion of trials a black ""stop signal"" in the shape of a star will appear around the shape. When this happens please try your best to stop your response and press nothing on that trial.</p><p class = block-text>The star will appear around the same time or shortly after the shape appears. Because of this, you will not always be able to successfully stop when a star appears. However, if you continue to try very hard to stop when a star appears, you will be able to stop sometimes but not always.</p><p class = block-text><strong>Please balance the requirement to respond quickly and accurately to the shapes while trying very hard to stop to the stop signal.</strong></p><p class = block-text>Press <strong>Enter</strong> to continue</p></div>","31782","13","31782","1000","feedback","poldrack-text","27","92278","0.0-2.0-0.0","stop_signal","","practice","","","","","","","","","","","",""
"","-1","-1","500","0","fixation","poldrack-single-stim","28","93801","0.0-2.0-1.0","stop_signal","","practice","<div class = shapebox><div class = fixation>+</div></div>","none","500","","","","","","","","",""
"","617","77","1850","0","stim","stop-signal","29","95660","0.0-2.0-2.0","stop_signal","","practice","<div class = shapebox><img class = stim src = /static/experiments/stop_signal/images/pentagon.png></img></div>","77,90","850","77","practice","0","<div class = stopbox><div class = centered-shape id = stop-signal></div><div class = centered-shape id = stop-signal-inner></div></div>","250","go","500","",""
"","-1","-1","500","0","fixation","poldrack-single-stim","30","96176","0.0-2.0-3.0","stop_signal","","practice","<div class = shapebox><div class = fixation>+</div></div>","none","500","","","","","","","","",""
"","499","77","1850","0","stim","stop-signal","31","98035","0.0-2.0-4.0","stop_signal","","practice","<div class = shapebox><img class = stim src = /static/experiments/stop_signal/images/tear.png></img></div>","77,90","850","77","practice","1","<div class = stopbox><div class = centered-shape id = stop-signal></div><div class = centered-shape id = stop-signal-inner></div></div>","250","go","500","",""
"","-1","-1","500","0","fixation","poldrack-single-stim","32","98543","0.0-2.0-5.0","stop_signal","","practice","<div class = shapebox><div class = fixation>+</div></div>","none","500","","","","","","","","",""
"","573","90","1850","0","stim","stop-signal","33","100409","0.0-2.0-6.0","stop_signal","","practice","<div class = shapebox><img class = stim src = /static/experiments/stop_signal/images/square.png></img></div>","77,90","850","90","practice","2","<div class = stopbox><div class = centered-shape id = stop-signal></div><div class = centered-shape id = stop-signal-inner></div></div>","250","go","500","",""
"","-1","-1","500","0","fixation","poldrack-single-stim","34","100921","0.0-2.0-7.0","stop_signal","","practice","<div class = shapebox><div class = fixation>+</div></div>","none","500","","","","","","","","",""
"","692","77","1850","0","stim","stop-signal","35","102775","0.0-2.0-8.0","stop_signal","","practice","<div class = shapebox><img class = stim src = /static/experiments/stop_signal/images/pentagon.png></img></div>","77,90","850","77","practice","3","<div class = stopbox><div class = centered-shape id = stop-signal></div><div class = centered-shape id = stop-signal-inner></div></div>","250","go","500","",""
"","-1","-1","500","0","fixation","poldrack-single-stim","36","103292","0.0-2.0-9.0","stop_signal","","practice","<div class = shapebox><div class = fixation>+</div></div>","none","500","","","","","","","","",""
"","649","77","1850","0","stim","stop-signal","37","105154","0.0-2.0-10.0","stop_signal","","practice","<div class = shapebox><img class = stim src = /static/experiments/stop_signal/images/pentagon.png></img></div>","77,90","850","77","practice","4","<div class = stopbox><div class = centered-shape id = stop-signal></div><div class = centered-shape id = stop-signal-inner></div></div>","250","go","500","",""
"","-1","-1","500","0","fixation","poldrack-single-stim","38","105659","0.0-2.0-11.0","stop_signal","","practice","<div class = shapebox><div class = fixation>+</div></div>","none","500","","","","","","","","",""
"","-1","-1","1850","0","stim","stop-signal","39","107524","0.0-2.0-12.0","stop_signal","","practice","<div class = shapebox><img class = stim src = /static/experiments/stop_signal/images/tear.png></img></div>","77,90","850","77","practice","5","<div class = stopbox><div class = centered-shape id = stop-signal></div><div class = centered-shape id = stop-signal-inner></div></div>","250","stop","500","",""
"","-1","-1","500","0","fixation","poldrack-single-stim","40","108037","0.0-2.0-13.0","stop_signal","","practice","<div class = shapebox><div class = fixation>+</div></div>","none","500","","","","","","","","",""
"","536","90","1850","0","stim","stop-signal","41","109893","0.0-2.0-14.0","stop_signal","","practice","<div class = shapebox><img class = stim src = /static/experiments/stop_signal/images/square.png></img></div>","77,90","850","90","practice","6","<div class = stopbox><div class = centered-shape id = stop-signal></div><div class = centered-shape id = stop-signal-inner></div></div>","250","stop","500","",""
"","-1","-1","500","0","fixation","poldrack-single-stim","42","110397","0.0-2.0-15.0","stop_signal","","practice","<div class = shapebox><div class = fixation>+</div></div>","none","500","","","","","","","","",""
"","591","90","1850","0","stim","stop-signal","43","112254","0.0-2.0-16.0","stop_signal","","practice","<div class = shapebox><img class = stim src = /static/experiments/stop_signal/images/tear.png></img></div>","77,90","850","77","practice","7","<div class = stopbox><div class = centered-shape id = stop-signal></div><div class = centered-shape id = stop-signal-inner></div></div>","250","go","500","",""
"","-1","-1","500","0","fixation","poldrack-single-stim","44","112760","0.0-2.0-17.0","stop_signal","","practice","<div class = shapebox><div class = fixation>+</div></div>","none","500","","","","","","","","",""
"","-1","-1","1850","0","stim","stop-signal","45","114627","0.0-2.0-18.0","stop_signal","","practice","<div class = shapebox><img class = stim src = /static/experiments/stop_signal/images/pentagon.png></img></div>","77,90","850","77","practice","8","<div class = stopbox><div class = centered-shape id = stop-signal></div><div class = centered-shape id = stop-signal-inner></div></div>","250","stop","500","",""
"","-1","-1","500","0","fixation","poldrack-single-stim","46","115142","0.0-2.0-19.0","stop_signal","","practice","<div class = shapebox><div class = fixation>+</div></div>","none","500","","","","","","","","",""
"","665","90","1850","0","stim","stop-signal","47","117002","0.0-2.0-20.0","stop_signal","","practice","<div class = shapebox><img class = stim src = /static/experiments/stop_signal/images/square.png></img></div>","77,90","850","90","practice","9","<div class = stopbox><div class = centered-shape id = stop-signal></div><div class = centered-shape id = stop-signal-inner></div></div>","250","go","500","",""
"","-1","-1","500","0","fixation","poldrack-single-stim","48","117510","0.0-2.0-21.0","stop_signal","","practice","<div class = shapebox><div class = fixation>+</div></div>","none","500","","","","","","","","",""
"","703","77","1850","0","stim","stop-signal","49","119370","0.0-2.0-22.0","stop_signal","","practice","<div class = shapebox><img class = stim src = /static/experiments/stop_signal/images/pentagon.png></img></div>","77,90","850","77","practice","10","<div class = stopbox><div class = centered-shape id = stop-signal></div><div class = centered-shape id = stop-signal-inner></div></div>","250","stop","500","",""
"","-1","-1","500","0","fixation","poldrack-single-stim","50","119878","0.0-2.0-23.0","stop_signal","","practice","<div class = shapebox><div class = fixation>+</div></div>","none","500","","","","","","","","",""
"","670","90","1850","0","stim","stop-signal","51","121744","0.0-2.0-24.0","stop_signal","","practice","<div class = shapebox><img class = stim src = /static/experiments/stop_signal/images/hourglass.png></img></div>","77,90","850","90","practice","11","<div class = stopbox><div class = centered-shape id = stop-signal></div><div class = centered-shape id = stop-signal-inner></div></div>","250","go","500","",""
"","-1","-1","500","0","fixation","poldrack-single-stim","52","122254","0.0-2.0-25.0","stop_signal","","practice","<div class = shapebox><div class = fixation>+</div></div>","none","500","","","","","","","","",""
"","703","90","1850","0","stim","stop-signal","53","124111","0.0-2.0-26.0","stop_signal","","practice","<div class = shapebox><img class = stim src = /static/experiments/stop_signal/images/hourglass.png></img></div>","77,90","850","90","practice","12","<div class = stopbox><div class = centered-shape id = stop-signal></div><div class = centered-shape id = stop-signal-inner></div></div>","250","go","500","",""
"","-1","-1","500","0","fixation","poldrack-single-stim","54","124628","0.0-2.0-27.0","stop_signal","","practice","<div class = shapebox><div class = fixation>+</div></div>","none","500","","","","","","","","",""
"","600","77","1850","0","stim","stop-signal","55","126495","0.0-2.0-28.0","stop_signal","","practice","<div class = shapebox><img class = stim src = /static/experiments/stop_signal/images/tear.png></img></div>","77,90","850","77","practice","13","<div class = stopbox><div class = centered-shape id = stop-signal></div><div class = centered-shape id = stop-signal-inner></div></div>","250","go","500","",""
"","-1","-1","500","0","fixation","poldrack-single-stim","56","127002","0.0-2.0-29.0","stop_signal","","practice","<div class = shapebox><div class = fixation>+</div></div>","none","500","","","","","","","","",""
"","-1","-1","1850","0","stim","stop-signal","57","128862","0.0-2.0-30.0","stop_signal","","practice","<div class = shapebox><img class = stim src = /static/experiments/stop_signal/images/hourglass.png></img></div>","77,90","850","90","practice","14","<div class = stopbox><div class = centered-shape id = stop-signal></div><div class = centered-shape id = stop-signal-inner></div></div>","250","stop","500","",""
"","-1","-1","500","0","fixation","poldrack-single-stim","58","129373","0.0-2.0-31.0","stop_signal","","practice","<div class = shapebox><div class = fixation>+</div></div>","none","500","","","","","","","","",""
"","-1","-1","1850","0","stim","stop-signal","59","131229","0.0-2.0-32.0","stop_signal","","practice","<div class = shapebox><img class = stim src = /static/experiments/stop_signal/images/square.png></img></div>","77,90","850","90","practice","15","<div class = stopbox><div class = centered-shape id = stop-signal></div><div class = centered-shape id = stop-signal-inner></div></div>","250","stop","500","",""
"","-1","-1","500","0","fixation","poldrack-single-stim","60","131745","0.0-2.0-33.0","stop_signal","","practice","<div class = shapebox><div class = fixation>+</div></div>","none","500","","","","","","","","",""
"","579","90","1850","0","stim","stop-signal","61","133604","0.0-2.0-34.0","stop_signal","","practice","<div class = shapebox><img class = stim src = /static/experiments/stop_signal/images/square.png></img></div>","77,90","850","90","practice","16","<div class = stopbox><div class = centered-shape id = stop-signal></div><div class = centered-shape id = stop-signal-inner></div></div>","250","go","500","",""
"","-1","-1","500","0","fixation","poldrack-single-stim","62","134113","0.0-2.0-35.0","stop_signal","","practice","<div class = shapebox><div class = fixation>+</div></div>","none","500","","","","","","","","",""
"","724","90","1850","0","stim","stop-signal","63","135979","0.0-2.0-36.0","stop_signal","","practice","<div class = shapebox><img class = stim src = /static/experiments/stop_signal/images/hourglass.png></img></div>","77,90","850","90","practice","17","<div class = stopbox><div class = centered-shape id = stop-signal></div><div class = centered-shape id = stop-signal-inner></div></div>","250","go","500","",""
"","-1","-1","500","0","fixation","poldrack-single-stim","64","136492","0.0-2.0-37.0","stop_signal","","practice","<div class = shapebox><div class = fixation>+</div></div>","none","500","","","","","","","","",""
"","649","77","1850","0","stim","stop-signal","65","138352","0.0-2.0-38.0","stop_signal","","practice","<div class = shapebox><img class = stim src = /static/experiments/stop_signal/images/tear.png></img></div>","77,90","850","77","practice","18","<div class = stopbox><div class = centered-shape id = stop-signal></div><div class = centered-shape id = stop-signal-inner></div></div>","250","go","500","",""
"","-1","-1","500","0","fixation","poldrack-single-stim","66","138862","0.0-2.0-39.0","stop_signal","","practice","<div class = shapebox><div class = fixation>+</div></div>","none","500","","","","","","","","",""
"","615","90","1850","0","stim","stop-signal","67","140720","0.0-2.0-40.0","stop_signal","","practice","<div class = shapebox><img class = stim src = /static/experiments/stop_signal/images/hourglass.png></img></div>","77,90","850","90","practice","19","<div class = stopbox><div class = centered-shape id = stop-signal></div><div class = centered-shape id = stop-signal-inner></div></div>","250","go","500","",""
"<div class = centerbox><p class = block-text></p><p class = block-text><strong>Average reaction time:  633 ms. Accuracy for non-star trials: 93%</strong></p><p class = block-text>Done with practice. We will now begin the 12 test blocks. There will be a break after each block. Press <strong>enter</strong> to continue.</p></div>","6498","13","6498","1000","feedback","poldrack-text","68","147221","0.0-3.0","stop_signal","","practice","","","","","","","","","","","",""
"","-1","-1","500","0","fixation","poldrack-single-stim","69","148733","0.0-4.0","stop_signal","","test","<div class = centerbox><div class = fixation>+</div></div>","none","500","","","","","","","","",""
"","657","90","1850","0","stim","stop-signal","70","150589","0.0-5.0","stop_signal","","test","<div class = shapebox><img class = stim src = /static/experiments/stop_signal/images/pentagon.png></img></div>","77,90","850","77","low","0","<div class = stopbox><div class = centered-shape id = stop-signal></div><div class = centered-shape id = stop-signal-inner></div></div>","250","go","500","",""
"","-1","-1","500","0","fixation","poldrack-single-stim","71","151096","0.0-6.0","stop_signal","","test","<div class = centerbox><div class = fixation>+</div></div>","none","500","","","","","","","","",""
"","807","90","1850","0","stim","stop-signal","72","152959","0.0-7.0","stop_signal","","test","<div class = shapebox><img class = stim src = /static/experiments/stop_signal/images/square.png></img></div>","77,90","850","90","low","1","<div class = stopbox><div class = centered-shape id = stop-signal></div><div class = centered-shape id = stop-signal-inner></div></div>","250","go","500","",""
"","-1","-1","500","0","fixation","poldrack-single-stim","73","153463","0.0-8.0","stop_signal","","test","<div class = centerbox><div class = fixation>+</div></div>","none","500","","","","","","","","",""
"","734","90","1850","0","stim","stop-signal","74","155316","0.0-9.0","stop_signal","","test","<div class = shapebox><img class = stim src = /static/experiments/stop_signal/images/hourglass.png></img></div>","77,90","850","90","low","2","<div class = stopbox><div class = centered-shape id = stop-signal></div><div class = centered-shape id = stop-signal-inner></div></div>","250","go","500","",""
"","-1","-1","500","0","fixation","poldrack-single-stim","75","155828","0.0-10.0","stop_signal","","test","<div class = centerbox><div class = fixation>+</div></div>","none","500","","","","","","","","",""
"","642","90","1850","0","stim","stop-signal","76","157681","0.0-11.0","stop_signal","","test","<div class = shapebox><img class = stim src = /static/experiments/stop_signal/images/hourglass.png></img></div>","77,90","850","90","low","3","<div class = stopbox><div class = centered-shape id = stop-signal></div><div class = centered-shape id = stop-signal-inner></div></div>","250","stop","500","",""
"","-1","-1","500","0","fixation","poldrack-single-stim","77","158194","0.0-12.0","stop_signal","","test","<div class = centerbox><div class = fixation>+</div></div>","none","500","","","","","","","","",""
"","661","90","1850","0","stim","stop-signal","78","160047","0.0-13.0","stop_signal","","test","<div class = shapebox><img class = stim src = /static/experiments/stop_signal/images/hourglass.png></img></div>","77,90","850","90","low","4","<div class = stopbox><div class = centered-shape id = stop-signal></div><div class = centered-shape id = stop-signal-inner></div></div>","200","go","500","",""
"","-1","-1","500","0","fixation","poldrack-single-stim","79","160564","0.0-14.0","stop_signal","","test","<div class = centerbox><div class = fixation>+</div></div>","none","500","","","","","","","","",""
"","562","77","1850","0","stim","stop-signal","80","162422","0.0-15.0","stop_signal","","test","<div class = shapebox><img class = stim src = /static/experiments/stop_signal/images/tear.png></img></div>","77,90","850","77","low","5","<div class = stopbox><div class = centered-shape id = stop-signal></div><div class = centered-shape id = stop-signal-inner></div></div>","200","go","500","",""
"","-1","-1","500","0","fixation","poldrack-single-stim","81","162931","0.0-16.0","stop_signal","","test","<div class = centerbox><div class = fixation>+</div></div>","none","500","","","","","","","","",""
"","650","90","1850","0","stim","stop-signal","82","164791","0.0-17.0","stop_signal","","test","<div class = shapebox><img class = stim src = /static/experiments/stop_signal/images/hourglass.png></img></div>","77,90","850","90","low","6","<div class = stopbox><div class = centered-shape id = stop-signal></div><div class = centered-shape id = stop-signal-inner></div></div>","200","go","500","",""
"","-1","-1","500","0","fixation","poldrack-single-stim","83","165298","0.0-18.0","stop_signal","","test","<div class = centerbox><div class = fixation>+</div></div>","none","500","","","","","","","","",""
"","565","90","1850","0","stim","stop-signal","84","167165","0.0-19.0","stop_signal","","test","<div class = shapebox><img class = stim src = /static/experiments/stop_signal/images/square.png></img></div>","77,90","850","90","low","7","<div class = stopbox><div class = centered-shape id = stop-signal></div><div class = centered-shape id = stop-signal-inner></div></div>","200","go","500","",""
"","-1","-1","500","0","fixation","poldrack-single-stim","85","167678","0.0-20.0","stop_signal","","test","<div class = centerbox><div class = fixation>+</div></div>","none","500","","","","","","","","",""
"","911","77","1850","0","stim","stop-signal","86","169532","0.0-21.0","stop_signal","","test","<div class = shapebox><img class = stim src = /static/experiments/stop_signal/images/tear.png></img></div>","77,90","850","77","low","8","<div class = stopbox><div class = centered-shape id = stop-signal></div><div class = centered-shape id = stop-signal-inner></div></div>","200","stop","500","",""
"","-1","-1","500","0","fixation","poldrack-single-stim","87","170039","0.0-22.0","stop_signal","","test","<div class = centerbox><div class = fixation>+</div></div>","none","500","","","","","","","","",""
"","552","90","1850","0","stim","stop-signal","88","171895","0.0-23.0","stop_signal","","test","<div class = shapebox><img class = stim src = /static/experiments/stop_signal/images/square.png></img></div>","77,90","850","90","low","9","<div class = stopbox><div class = centered-shape id = stop-signal></div><div class = centered-shape id = stop-signal-inner></div></div>","150","go","500","",""
"","-1","-1","500","0","fixation","poldrack-single-stim","89","172399","0.0-24.0","stop_signal","","test","<div class = centerbox><div class = fixation>+</div></div>","none","500","","","","","","","","",""
"","-1","-1","1850","0","stim","stop-signal","90","174264","0.0-25.0","stop_signal","","test","<div class = shapebox><img class = stim src = /static/experiments/stop_signal/images/hourglass.png></img></div>","77,90","850","90","low","10","<div class = stopbox><div class = centered-shape id = stop-signal></div><div class = centered-shape id = stop-signal-inner></div></div>","150","stop","500","",""
"","-1","-1","500","0","fixation","poldrack-single-stim","91","174776","0.0-26.0","stop_signal","","test","<div class = centerbox><div class = fixation>+</div></div>","none","500","","","","","","","","",""
"","590","90","1850","0","stim","stop-signal","92","176632","0.0-27.0","stop_signal","","test","<div class = shapebox><img class = stim src = /static/experiments/stop_signal/images/hourglass.png></img></div>","77,90","850","90","low","11","<div class = stopbox><div class = centered-shape id = stop-signal></div><div class = centered-shape id = stop-signal-inner></div></div>","200","go","500","",""
"","-1","-1","500","0","fixation","poldrack-single-stim","93","177138","0.0-28.0","stop_signal","","test","<div class = centerbox><div class = fixation>+</div></div>","none","500","","","","","","","","",""
"","539","77","1850","0","stim","stop-signal","94","178997","0.0-29.0","stop_signal","","test","<div class = shapebox><img class = stim src = /static/experiments/stop_signal/images/tear.png></img></div>","77,90","850","77","low","12","<div class = stopbox><div class = centered-shape id = stop-signal></div><div class = centered-shape id = stop-signal-inner></div></div>","200","stop","500","",""
"","-1","-1","500","0","fixation","poldrack-single-stim","95","179507","0.0-30.0","stop_signal","","test","<div class = centerbox><div class = fixation>+</div></div>","none","500","","","","","","","","",""
"","554","90","1850","0","stim","stop-signal","96","181366","0.0-31.0","stop_signal","","test","<div class = shapebox><img class = stim src = /static/experiments/stop_signal/images/hourglass.png></img></div>","77,90","850","90","low","13","<div class = stopbox><div class = centered-shape id = stop-signal></div><div class = centered-shape id = stop-signal-inner></div></div>","150","go","500","",""
"","-1","-1","500","0","fixation","poldrack-single-stim","97","181878","0.0-32.0","stop_signal","","test","<div class = centerbox><div class = fixation>+</div></div>","none","500","","","","","","","","",""
"","583","77","1850","0","stim","stop-signal","98","183733","0.0-33.0","stop_signal","","test","<div class = shapebox><img class = stim src = /static/experiments/stop_signal/images/pentagon.png></img></div>","77,90","850","77","low","14","<div class = stopbox><div class = centered-shape id = stop-signal></div><div class = centered-shape id = stop-signal-inner></div></div>","150","go","500","",""
"","-1","-1","500","0","fixation","poldrack-single-stim","99","184250","0.0-34.0","stop_signal","","test","<div class = centerbox><div class = fixation>+</div></div>","none","500","","","","","","","","",""
"","596","77","1850","0","stim","stop-signal","100","186105","0.0-35.0","stop_signal","","test","<div class = shapebox><img class = stim src = /static/experiments/stop_signal/images/tear.png></img></div>","77,90","850","77","low","15","<div class = stopbox><div class = centered-shape id = stop-signal></div><div class = centered-shape id = stop-signal-inner></div></div>","150","stop","500","",""
"","-1","-1","500","0","fixation","poldrack-single-stim","101","186617","0.0-36.0","stop_signal","","test","<div class = centerbox><div class = fixation>+</div></div>","none","500","","","","","","","","",""
"","618","77","1850","0","stim","stop-signal","102","188484","0.0-37.0","stop_signal","","test","<div class = shapebox><img class = stim src = /static/experiments/stop_signal/images/square.png></img></div>","77,90","850","90","low","16","<div class = stopbox><div class = centered-shape id = stop-signal></div><div class = centered-shape id = stop-signal-inner></div></div>","100","go","500","",""
"","-1","-1","500","0","fixation","poldrack-single-stim","103","189000","0.0-38.0","stop_signal","","test","<div class = centerbox><div class = fixation>+</div></div>","none","500","","","","","","","","",""
"","686","77","1850","0","stim","stop-signal","104","190858","0.0-39.0","stop_signal","","test","<div class = shapebox><img class = stim src = /static/experiments/stop_signal/images/pentagon.png></img></div>","77,90","850","77","low","17","<div class = stopbox><div class = centered-shape id = stop-signal></div><div class = centered-shape id = stop-signal-inner></div></div>","100","go","500","",""
"","-1","-1","500","0","fixation","poldrack-single-stim","105","191367","0.0-40.0","stop_signal","","test","<div class = centerbox><div class = fixation>+</div></div>","none","500","","","","","","","","",""
"","680","77","1850","0","stim","stop-signal","106","193226","0.0-41.0","stop_signal","","test","<div class = shapebox><img class = stim src = /static/experiments/stop_signal/images/tear.png></img></div>","77,90","850","77","low","18","<div class = stopbox><div class = centered-shape id = stop-signal></div><div class = centered-shape id = stop-signal-inner></div></div>","100","go","500","",""
"","-1","-1","500","0","fixation","poldrack-single-stim","107","193733","0.0-42.0","stop_signal","","test","<div class = centerbox><div class = fixation>+</div></div>","none","500","","","","","","","","",""
"","609","77","1850","0","stim","stop-signal","108","195595","0.0-43.0","stop_signal","","test","<div class = shapebox><img class = stim src = /static/experiments/stop_signal/images/tear.png></img></div>","77,90","850","77","low","19","<div class = stopbox><div class = centered-shape id = stop-signal></div><div class = centered-shape id = stop-signal-inner></div></div>","100","go","500","",""
"","-1","-1","500","0","fixation","poldrack-single-stim","109","196100","0.0-44.0","stop_signal","","test","<div class = centerbox><div class = fixation>+</div></div>","none","500","","","","","","","","",""
"","611","90","1850","0","stim","stop-signal","110","197967","0.0-45.0","stop_signal","","test","<div class = shapebox><img class = stim src = /static/experiments/stop_signal/images/hourglass.png></img></div>","77,90","850","90","low","20","<div class = stopbox><div class = centered-shape id = stop-signal></div><div class = centered-shape id = stop-signal-inner></div></div>","100","go","500","",""
"","-1","-1","500","0","fixation","poldrack-single-stim","111","198478","0.0-46.0","stop_signal","","test","<div class = centerbox><div class = fixation>+</div></div>","none","500","","","","","","","","",""
"","671","77","1850","0","stim","stop-signal","112","200334","0.0-47.0","stop_signal","","test","<div class = shapebox><img class = stim src = /static/experiments/stop_signal/images/square.png></img></div>","77,90","850","90","low","21","<div class = stopbox><div class = centered-shape id = stop-signal></div><div class = centered-shape id = stop-signal-inner></div></div>","100","go","500","",""
"","-1","-1","500","0","fixation","poldrack-single-stim","113","200851","0.0-48.0","stop_signal","","test","<div class = centerbox><div class = fixation>+</div></div>","none","500","","","","","","","","",""
"","811","90","1850","0","stim","stop-signal","114","202706","0.0-49.0","stop_signal","","test","<div class = shapebox><img class = stim src = /static/experiments/stop_signal/images/square.png></img></div>","77,90","850","90","low","22","<div class = stopbox><div class = centered-shape id = stop-signal></div><div class = centered-shape id = stop-signal-inner></div></div>","100","go","500","",""
"","-1","-1","500","0","fixation","poldrack-single-stim","115","203218","0.0-50.0","stop_signal","","test","<div class = centerbox><div class = fixation>+</div></div>","none","500","","","","","","","","",""
"","541","90","1850","0","stim","stop-signal","116","205077","0.0-51.0","stop_signal","","test","<div class = shapebox><img class = stim src = /static/experiments/stop_signal/images/square.png></img></div>","77,90","850","90","low","23","<div class = stopbox><div class = centered-shape id = stop-signal></div><div class = centered-shape id = stop-signal-inner></div></div>","100","go","500","",""
"","-1","-1","500","0","fixation","poldrack-single-stim","117","205580","0.0-52.0","stop_signal","","test","<div class = centerbox><div class = fixation>+</div></div>","none","500","","","","","","","","",""
"","627","90","1850","0","stim","stop-signal","118","207434","0.0-53.0","stop_signal","","test","<div class = shapebox><img class = stim src = /static/experiments/stop_signal/images/pentagon.png></img></div>","77,90","850","77","low","24","<div class = stopbox><div class = centered-shape id = stop-signal></div><div class = centered-shape id = stop-signal-inner></div></div>","100","go","500","",""
"","-1","-1","500","0","fixation","poldrack-single-stim","119","207938","0.0-54.0","stop_signal","","test","<div class = centerbox><div class = fixation>+</div></div>","none","500","","","","","","","","",""
"","621","90","1850","0","stim","stop-signal","120","209794","0.0-55.0","stop_signal","","test","<div class = shapebox><img class = stim src = /static/experiments/stop_signal/images/square.png></img></div>","77,90","850","90","low","25","<div class = stopbox><div class = centered-shape id = stop-signal></div><div class = centered-shape id = stop-signal-inner></div></div>","100","go","500","",""
"","-1","-1","500","0","fixation","poldrack-single-stim","121","210302","0.0-56.0","stop_signal","","test","<div class = centerbox><div class = fixation>+</div></div>","none","500","","","","","","","","",""
"","624","90","1850","0","stim","stop-signal","122","212160","0.0-57.0","stop_signal","","test","<div class = shapebox><img class = stim src = /static/experiments/stop_signal/images/pentagon.png></img></div>","77,90","850","77","low","26","<div class = stopbox><div class = centered-shape id = stop-signal></div><div class = centered-shape id = stop-signal-inner></div></div>","100","go","500","",""
"","-1","-1","500","0","fixation","poldrack-single-stim","123","212669","0.0-58.0","stop_signal","","test","<div class = centerbox><div class = fixation>+</div></div>","none","500","","","","","","","","",""
"","608","77","1850","0","stim","stop-signal","124","214530","0.0-59.0","stop_signal","","test","<div class = shapebox><img class = stim src = /static/experiments/stop_signal/images/tear.png></img></div>","77,90","850","77","low","27","<div class = stopbox><div class = centered-shape id = stop-signal></div><div class = centered-shape id = stop-signal-inner></div></div>","100","go","500","",""
"","-1","-1","500","0","fixation","poldrack-single-stim","125","215036","0.0-60.0","stop_signal","","test","<div class = centerbox><div class = fixation>+</div></div>","none","500","","","","","","","","",""
"","657","77","1850","0","stim","stop-signal","126","216894","0.0-61.0","stop_signal","","test","<div class = shapebox><img class = stim src = /static/experiments/stop_signal/images/tear.png></img></div>","77,90","850","77","low","28","<div class = stopbox><div class = centered-shape id = stop-signal></div><div class = centered-shape id = stop-signal-inner></div></div>","100","go","500","",""
"","-1","-1","500","0","fixation","poldrack-single-stim","127","217402","0.0-62.0","stop_signal","","test","<div class = centerbox><div class = fixation>+</div></div>","none","500","","","","","","","","",""
"","587","90","1850","0","stim","stop-signal","128","219270","0.0-63.0","stop_signal","","test","<div class = shapebox><img class = stim src = /static/experiments/stop_signal/images/square.png></img></div>","77,90","850","90","low","29","<div class = stopbox><div class = centered-shape id = stop-signal></div><div class = centered-shape id = stop-signal-inner></div></div>","100","go","500","",""
"","-1","-1","500","0","fixation","poldrack-single-stim","129","219780","0.0-64.0","stop_signal","","test","<div class = centerbox><div class = fixation>+</div></div>","none","500","","","","","","","","",""
"","441","90","1850","0","stim","stop-signal","130","221636","0.0-65.0","stop_signal","","test","<div class = shapebox><img class = stim src = /static/experiments/stop_signal/images/square.png></img></div>","77,90","850","90","low","30","<div class = stopbox><div class = centered-shape id = stop-signal></div><div class = centered-shape id = stop-signal-inner></div></div>","100","go","500","",""
"","-1","-1","500","0","fixation","poldrack-single-stim","131","222148","0.0-66.0","stop_signal","","test","<div class = centerbox><div class = fixation>+</div></div>","none","500","","","","","","","","",""
"","634","77","1850","0","stim","stop-signal","132","224003","0.0-67.0","stop_signal","","test","<div class = shapebox><img class = stim src = /static/experiments/stop_signal/images/pentagon.png></img></div>","77,90","850","77","low","31","<div class = stopbox><div class = centered-shape id = stop-signal></div><div class = centered-shape id = stop-signal-inner></div></div>","100","go","500","",""
"","-1","-1","500","0","fixation","poldrack-single-stim","133","224517","0.0-68.0","stop_signal","","test","<div class = centerbox><div class = fixation>+</div></div>","none","500","","","","","","","","",""
"","401","90","1850","0","stim","stop-signal","134","226370","0.0-69.0","stop_signal","","test","<div class = shapebox><img class = stim src = /static/experiments/stop_signal/images/hourglass.png></img></div>","77,90","850","90","low","32","<div class = stopbox><div class = centered-shape id = stop-signal></div><div class = centered-shape id = stop-signal-inner></div></div>","100","go","500","",""
"","-1","-1","500","0","fixation","poldrack-single-stim","135","226880","0.0-70.0","stop_signal","","test","<div class = centerbox><div class = fixation>+</div></div>","none","500","","","","","","","","",""
"","598","90","1850","0","stim","stop-signal","136","228737","0.0-71.0","stop_signal","","test","<div class = shapebox><img class = stim src = /static/experiments/stop_signal/images/pentagon.png></img></div>","77,90","850","77","low","33","<div class = stopbox><div class = centered-shape id = stop-signal></div><div class = centered-shape id = stop-signal-inner></div></div>","100","go","500","",""
"","-1","-1","500","0","fixation","poldrack-single-stim","137","229246","0.0-72.0","stop_signal","","test","<div class = centerbox><div class = fixation>+</div></div>","none","500","","","","","","","","",""
"","696","77","1850","0","stim","stop-signal","138","231104","0.0-73.0","stop_signal","","test","<div class = shapebox><img class = stim src = /static/experiments/stop_signal/images/pentagon.png></img></div>","77,90","850","77","low","34","<div class = stopbox><div class = centered-shape id = stop-signal></div><div class = centered-shape id = stop-signal-inner></div></div>","100","go","500","",""
"","-1","-1","500","0","fixation","poldrack-single-stim","139","231620","0.0-74.0","stop_signal","","test","<div class = centerbox><div class = fixation>+</div></div>","none","500","","","","","","","","",""
"","673","90","1850","0","stim","stop-signal","140","233478","0.0-75.0","stop_signal","","test","<div class = shapebox><img class = stim src = /static/experiments/stop_signal/images/square.png></img></div>","77,90","850","90","low","35","<div class = stopbox><div class = centered-shape id = stop-signal></div><div class = centered-shape id = stop-signal-inner></div></div>","100","go","500","",""
"","-1","-1","500","0","fixation","poldrack-single-stim","141","233987","0.0-76.0","stop_signal","","test","<div class = centerbox><div class = fixation>+</div></div>","none","500","","","","","","","","",""
"","594","77","1850","0","stim","stop-signal","142","235846","0.0-77.0","stop_signal","","test","<div class = shapebox><img class = stim src = /static/experiments/stop_signal/images/tear.png></img></div>","77,90","850","77","low","36","<div class = stopbox><div class = centered-shape id = stop-signal></div><div class = centered-shape id = stop-signal-inner></div></div>","100","go","500","",""
"","-1","-1","500","0","fixation","poldrack-single-stim","143","236354","0.0-78.0","stop_signal","","test","<div class = centerbox><div class = fixation>+</div></div>","none","500","","","","","","","","",""
"","602","77","1850","0","stim","stop-signal","144","238209","0.0-79.0","stop_signal","","test","<div class = shapebox><img class = stim src = /static/experiments/stop_signal/images/pentagon.png></img></div>","77,90","850","77","low","37","<div class = stopbox><div class = centered-shape id = stop-signal></div><div class = centered-shape id = stop-signal-inner></div></div>","100","go","500","",""
"","-1","-1","500","0","fixation","poldrack-single-stim","145","238722","0.0-80.0","stop_signal","","test","<div class = centerbox><div class = fixation>+</div></div>","none","500","","","","","","","","",""
"","612","90","1850","0","stim","stop-signal","146","240581","0.0-81.0","stop_signal","","test","<div class = shapebox><img class = stim src = /static/experiments/stop_signal/images/square.png></img></div>","77,90","850","90","low","38","<div class = stopbox><div class = centered-shape id = stop-signal></div><div class = centered-shape id = stop-signal-inner></div></div>","100","go","500","",""
"","-1","-1","500","0","fixation","poldrack-single-stim","147","241088","0.0-82.0","stop_signal","","test","<div class = centerbox><div class = fixation>+</div></div>","none","500","","","","","","","","",""
"","525","77","1850","0","stim","stop-signal","148","242942","0.0-83.0","stop_signal","","test","<div class = shapebox><img class = stim src = /static/experiments/stop_signal/images/pentagon.png></img></div>","77,90","850","77","low","39","<div class = stopbox><div class = centered-shape id = stop-signal></div><div class = centered-shape id = stop-signal-inner></div></div>","100","go","500","",""
"","-1","-1","500","0","fixation","poldrack-single-stim","149","243455","0.0-84.0","stop_signal","","test","<div class = centerbox><div class = fixation>+</div></div>","none","500","","","","","","","","",""
"","688","90","1850","0","stim","stop-signal","150","245309","0.0-85.0","stop_signal","","test","<div class = shapebox><img class = stim src = /static/experiments/stop_signal/images/square.png></img></div>","77,90","850","90","low","40","<div class = stopbox><div class = centered-shape id = stop-signal></div><div class = centered-shape id = stop-signal-inner></div></div>","100","go","500","",""
"","-1","-1","500","0","fixation","poldrack-single-stim","151","245821","0.0-86.0","stop_signal","","test","<div class = centerbox><div class = fixation>+</div></div>","none","500","","","","","","","","",""
"","561","77","1850","0","stim","stop-signal","152","247684","0.0-87.0","stop_signal","","test","<div class = shapebox><img class = stim src = /static/experiments/stop_signal/images/tear.png></img></div>","77,90","850","77","low","41","<div class = stopbox><div class = centered-shape id = stop-signal></div><div class = centered-shape id = stop-signal-inner></div></div>","100","go","500","",""
"","-1","-1","500","0","fixation","poldrack-single-stim","153","248188","0.0-88.0","stop_signal","","test","<div class = centerbox><div class = fixation>+</div></div>","none","500","","","","","","","","",""
"","529","77","1850","0","stim","stop-signal","154","250055","0.0-89.0","stop_signal","","test","<div class = shapebox><img class = stim src = /static/experiments/stop_signal/images/tear.png></img></div>","77,90","850","77","low","42","<div class = stopbox><div class = centered-shape id = stop-signal></div><div class = centered-shape id = stop-signal-inner></div></div>","100","go","500","",""
"","-1","-1","500","0","fixation","poldrack-single-stim","155","250565","0.0-90.0","stop_signal","","test","<div class = centerbox><div class = fixation>+</div></div>","none","500","","","","","","","","",""
"","529","90","1850","0","stim","stop-signal","156","252422","0.0-91.0","stop_signal","","test","<div class = shapebox><img class = stim src = /static/experiments/stop_signal/images/pentagon.png></img></div>","77,90","850","77","low","43","<div class = stopbox><div class = centered-shape id = stop-signal></div><div class = centered-shape id = stop-signal-inner></div></div>","100","stop","500","",""
"","-1","-1","500","0","fixation","poldrack-single-stim","157","252935","0.0-92.0","stop_signal","","test","<div class = centerbox><div class = fixation>+</div></div>","none","500","","","","","","","","",""
"","663","90","1850","0","stim","stop-signal","158","254789","0.0-93.0","stop_signal","","test","<div class = shapebox><img class = stim src = /static/experiments/stop_signal/images/hourglass.png></img></div>","77,90","850","90","low","44","<div class = stopbox><div class = centered-shape id = stop-signal></div><div class = centered-shape id = stop-signal-inner></div></div>","50","go","500","",""
"","-1","-1","500","0","fixation","poldrack-single-stim","159","255303","0.0-94.0","stop_signal","","test","<div class = centerbox><div class = fixation>+</div></div>","none","500","","","","","","","","",""
"","-1","-1","1850","0","stim","stop-signal","160","257156","0.0-95.0","stop_signal","","test","<div class = shapebox><img class = stim src = /static/experiments/stop_signal/images/pentagon.png></img></div>","77,90","850","77","low","45","<div class = stopbox><div class = centered-shape id = stop-signal></div><div class = centered-shape id = stop-signal-inner></div></div>","50","stop","500","",""
"","-1","-1","500","0","fixation","poldrack-single-stim","161","257663","0.0-96.0","stop_signal","","test","<div class = centerbox><div class = fixation>+</div></div>","none","500","","","","","","","","",""
"","-1","-1","1850","0","stim","stop-signal","162","259523","0.0-97.0","stop_signal","","test","<div class = shapebox><img class = stim src = /static/experiments/stop_signal/images/hourglass.png></img></div>","77,90","850","90","low","46","<div class = stopbox><div class = centered-shape id = stop-signal></div><div class = centered-shape id = stop-signal-inner></div></div>","100","stop","500","",""
"","-1","-1","500","0","fixation","poldrack-single-stim","163","260034","0.0-98.0","stop_signal","","test","<div class = centerbox><div class = fixation>+</div></div>","none","500","","","","","","","","",""
"","-1","-1","1850","0","stim","stop-signal","164","261890","0.0-99.0","stop_signal","","test","<div class = shapebox><img class = stim src = /static/experiments/stop_signal/images/pentagon.png></img></div>","77,90","850","77","low","47","<div class = stopbox><div class = centered-shape id = stop-signal></div><div class = centered-shape id = stop-signal-inner></div></div>","150","stop","500","",""
"","-1","-1","500","0","fixation","poldrack-single-stim","165","262399","0.0-100.0","stop_signal","","test","<div class = centerbox><div class = fixation>+</div></div>","none","500","","","","","","","","",""
"","-1","-1","1850","0","stim","stop-signal","166","264257","0.0-101.0","stop_signal","","test","<div class = shapebox><img class = stim src = /static/experiments/stop_signal/images/tear.png></img></div>","77,90","850","77","low","48","<div class = stopbox><div class = centered-shape id = stop-signal></div><div class = centered-shape id = stop-signal-inner></div></div>","200","stop","500","",""
"","-1","-1","500","0","fixation","poldrack-single-stim","167","264770","0.0-102.0","stop_signal","","test","<div class = centerbox><div class = fixation>+</div></div>","none","500","","","","","","","","",""
"","692","90","1850","0","stim","stop-signal","168","266623","0.0-103.0","stop_signal","","test","<div class = shapebox><img class = stim src = /static/experiments/stop_signal/images/hourglass.png></img></div>","77,90","850","90","low","49","<div class = stopbox><div class = centered-shape id = stop-signal></div><div class = centered-shape id = stop-signal-inner></div></div>","250","go","500","",""
"<div class = centerbox><p class = block-text><br>Done with a test block. Please take this time to read your feedback and to take a short break! Press <strong>enter</strong> to continue after you have read the feedback.</p><p class = block-text><strong>Average reaction time:  615 ms. Accuracy for non-star trials: 85%</strong></p></div>","17748","13","17748","1000","feedback","poldrack-text","169","284445","0.0-105.0","stop_signal","","test","","","","","","","","","","","",""
"","-1","-1","500","0","fixation","poldrack-single-stim","170","285959","0.0-106.0","stop_signal","","test","<div class = centerbox><div class = fixation>+</div></div>","none","500","","","","","","","","",""
"","654","77","1850","0","stim","stop-signal","171","287825","0.0-107.0","stop_signal","","test","<div class = shapebox><img class = stim src = /static/experiments/stop_signal/images/tear.png></img></div>","77,90","850","77","low","50","<div class = stopbox><div class = centered-shape id = stop-signal></div><div class = centered-shape id = stop-signal-inner></div></div>","250","go","500","",""
"","-1","-1","500","0","fixation","poldrack-single-stim","172","288333","0.0-108.0","stop_signal","","test","<div class = centerbox><div class = fixation>+</div></div>","none","500","","","","","","","","",""
"","544","90","1850","0","stim","stop-signal","173","290189","0.0-109.0","stop_signal","","test","<div class = shapebox><img class = stim src = /static/experiments/stop_signal/images/hourglass.png></img></div>","77,90","850","90","low","51","<div class = stopbox><div class = centered-shape id = stop-signal></div><div class = centered-shape id = stop-signal-inner></div></div>","250","go","500","",""
"","-1","-1","500","0","fixation","poldrack-single-stim","174","290693","0.0-110.0","stop_signal","","test","<div class = centerbox><div class = fixation>+</div></div>","none","500","","","","","","","","",""
"","824","90","1850","0","stim","stop-signal","175","292559","0.0-111.0","stop_signal","","test","<div class = shapebox><img class = stim src = /static/experiments/stop_signal/images/square.png></img></div>","77,90","850","90","low","52","<div class = stopbox><div class = centered-shape id = stop-signal></div><div class = centered-shape id = stop-signal-inner></div></div>","250","go","500","",""
"","-1","-1","500","0","fixation","poldrack-single-stim","176","293070","0.0-112.0","stop_signal","","test","<div class = centerbox><div class = fixation>+</div></div>","none","500","","","","","","","","",""
"","744","77","1850","0","stim","stop-signal","177","294926","0.0-113.0","stop_signal","","test","<div class = shapebox><img class = stim src = /static/experiments/stop_signal/images/pentagon.png></img></div>","77,90","850","77","low","53","<div class = stopbox><div class = centered-shape id = stop-signal></div><div class = centered-shape id = stop-signal-inner></div></div>","250","go","500","",""
"","-1","-1","500","0","fixation","poldrack-single-stim","178","295438","0.0-114.0","stop_signal","","test","<div class = centerbox><div class = fixation>+</div></div>","none","500","","","","","","","","",""
"","575","77","1850","0","stim","stop-signal","179","297293","0.0-115.0","stop_signal","","test","<div class = shapebox><img class = stim src = /static/experiments/stop_signal/images/tear.png></img></div>","77,90","850","77","low","54","<div class = stopbox><div class = centered-shape id = stop-signal></div><div class = centered-shape id = stop-signal-inner></div></div>","250","go","500","",""
"","-1","-1","500","0","fixation","poldrack-single-stim","180","297810","0.0-116.0","stop_signal","","test","<div class = centerbox><div class = fixation>+</div></div>","none","500","","","","","","","","",""
"","514","77","1850","0","stim","stop-signal","181","299668","0.0-117.0","stop_signal","","test","<div class = shapebox><img class = stim src = /static/experiments/stop_signal/images/tear.png></img></div>","77,90","850","77","low","55","<div class = stopbox><div class = centered-shape id = stop-signal></div><div class = centered-shape id = stop-signal-inner></div></div>","250","go","500","",""
"","-1","-1","500","0","fixation","poldrack-single-stim","182","300177","0.0-118.0","stop_signal","","test","<div class = centerbox><div class = fixation>+</div></div>","none","500","","","","","","","","",""
"","1181","90","1850","0","stim","stop-signal","183","302040","0.0-119.0","stop_signal","","test","<div class = shapebox><img class = stim src = /static/experiments/stop_signal/images/square.png></img></div>","77,90","850","90","low","56","<div class = stopbox><div class = centered-shape id = stop-signal></div><div class = centered-shape id = stop-signal-inner></div></div>","250","go","500","",""
"","-1","-1","500","0","fixation","poldrack-single-stim","184","302544","0.0-120.0","stop_signal","","test","<div class = centerbox><div class = fixation>+</div></div>","none","500","","","","","","","","",""
"","541","90","1850","0","stim","stop-signal","185","304411","0.0-121.0","stop_signal","","test","<div class = shapebox><img class = stim src = /static/experiments/stop_signal/images/square.png></img></div>","77,90","850","90","low","57","<div class = stopbox><div class = centered-shape id = stop-signal></div><div class = centered-shape id = stop-signal-inner></div></div>","250","stop","500","",""
"","-1","-1","500","0","fixation","poldrack-single-stim","186","304922","0.0-122.0","stop_signal","","test","<div class = centerbox><div class = fixation>+</div></div>","none","500","","","","","","","","",""
"","685","77","1850","0","stim","stop-signal","187","306777","0.0-123.0","stop_signal","","test","<div class = shapebox><img class = stim src = /static/experiments/stop_signal/images/pentagon.png></img></div>","77,90","850","77","low","58","<div class = stopbox><div class = centered-shape id = stop-signal></div><div class = centered-shape id = stop-signal-inner></div></div>","200","go","500","",""
"","-1","-1","500","0","fixation","poldrack-single-stim","188","307290","0.0-124.0","stop_signal","","test","<div class = centerbox><div class = fixation>+</div></div>","none","500","","","","","","","","",""
"","460","77","1850","0","stim","stop-signal","189","309144","0.0-125.0","stop_signal","","test","<div class = shapebox><img class = stim src = /static/experiments/stop_signal/images/tear.png></img></div>","77,90","850","77","low","59","<div class = stopbox><div class = centered-shape id = stop-signal></div><div class = centered-shape id = stop-signal-inner></div></div>","200","stop","500","",""
"","-1","-1","500","0","fixation","poldrack-single-stim","190","309658","0.0-126.0","stop_signal","","test","<div class = centerbox><div class = fixation>+</div></div>","none","500","","","","","","","","",""
"","692","90","1850","0","stim","stop-signal","191","311510","0.0-127.0","stop_signal","","test","<div class = shapebox><img class = stim src = /static/experiments/stop_signal/images/hourglass.png></img></div>","77,90","850","90","low","60","<div class = stopbox><div class = centered-shape id = stop-signal></div><div class = centered-shape id = stop-signal-inner></div></div>","150","go","500","",""
"","-1","-1","500","0","fixation","poldrack-single-stim","192","312027","0.0-128.0","stop_signal","","test","<div class = centerbox><div class = fixation>+</div></div>","none","500","","","","","","","","",""
"","579","77","1850","0","stim","stop-signal","193","313885","0.0-129.0","stop_signal","","test","<div class = shapebox><img class = stim src = /static/experiments/stop_signal/images/tear.png></img></div>","77,90","850","77","low","61","<div class = stopbox><div class = centered-shape id = stop-signal></div><div class = centered-shape id = stop-signal-inner></div></div>","150","go","500","",""
"","-1","-1","500","0","fixation","poldrack-single-stim","194","314394","0.0-130.0","stop_signal","","test","<div class = centerbox><div class = fixation>+</div></div>","none","500","","","","","","","","",""
"","547","90","1850","0","stim","stop-signal","195","316253","0.0-131.0","stop_signal","","test","<div class = shapebox><img class = stim src = /static/experiments/stop_signal/images/hourglass.png></img></div>","77,90","850","90","low","62","<div class = stopbox><div class = centered-shape id = stop-signal></div><div class = centered-shape id = stop-signal-inner></div></div>","150","go","500","",""
"","-1","-1","500","0","fixation","poldrack-single-stim","196","316761","0.0-132.0","stop_signal","","test","<div class = centerbox><div class = fixation>+</div></div>","none","500","","","","","","","","",""
"","685","90","1850","0","stim","stop-signal","197","318624","0.0-133.0","stop_signal","","test","<div class = shapebox><img class = stim src = /static/experiments/stop_signal/images/square.png></img></div>","77,90","850","90","low","63","<div class = stopbox><div class = centered-shape id = stop-signal></div><div class = centered-shape id = stop-signal-inner></div></div>","150","go","500","",""
"","-1","-1","500","0","fixation","poldrack-single-stim","198","319128","0.0-134.0","stop_signal","","test","<div class = centerbox><div class = fixation>+</div></div>","none","500","","","","","","","","",""
"","559","90","1850","0","stim","stop-signal","199","320981","0.0-135.0","stop_signal","","test","<div class = shapebox><img class = stim src = /static/experiments/stop_signal/images/hourglass.png></img></div>","77,90","850","90","low","64","<div class = stopbox><div class = centered-shape id = stop-signal></div><div class = centered-shape id = stop-signal-inner></div></div>","150","go","500","",""
"","-1","-1","500","0","fixation","poldrack-single-stim","200","321492","0.0-136.0","stop_signal","","test","<div class = centerbox><div class = fixation>+</div></div>","none","500","","","","","","","","",""
"","434","90","1850","0","stim","stop-signal","201","323345","0.0-137.0","stop_signal","","test","<div class = shapebox><img class = stim src = /static/experiments/stop_signal/images/square.png></img></div>","77,90","850","90","low","65","<div class = stopbox><div class = centered-shape id = stop-signal></div><div class = centered-shape id = stop-signal-inner></div></div>","150","stop","500","",""
"","-1","-1","500","0","fixation","poldrack-single-stim","202","323862","0.0-138.0","stop_signal","","test","<div class = centerbox><div class = fixation>+</div></div>","none","500","","","","","","","","",""
"","600","77","1850","0","stim","stop-signal","203","325721","0.0-139.0","stop_signal","","test","<div class = shapebox><img class = stim src = /static/experiments/stop_signal/images/pentagon.png></img></div>","77,90","850","77","low","66","<div class = stopbox><div class = centered-shape id = stop-signal></div><div class = centered-shape id = stop-signal-inner></div></div>","100","go","500","",""
"","-1","-1","500","0","fixation","poldrack-single-stim","204","326229","0.0-140.0","stop_signal","","test","<div class = centerbox><div class = fixation>+</div></div>","none","500","","","","","","","","",""
"","610","77","1850","0","stim","stop-signal","205","328093","0.0-141.0","stop_signal","","test","<div class = shapebox><img class = stim src = /static/experiments/stop_signal/images/pentagon.png></img></div>","77,90","850","77","low","67","<div class = stopbox><div class = centered-shape id = stop-signal></div><div class = centered-shape id = stop-signal-inner></div></div>","100","go","500","",""
"","-1","-1","500","0","fixation","poldrack-single-stim","206","328595","0.0-142.0","stop_signal","","test","<div class = centerbox><div class = fixation>+</div></div>","none","500","","","","","","","","",""
"","530","77","1850","0","stim","stop-signal","207","330459","0.0-143.0","stop_signal","","test","<div class = shapebox><img class = stim src = /static/experiments/stop_signal/images/pentagon.png></img></div>","77,90","850","77","low","68","<div class = stopbox><div class = centered-shape id = stop-signal></div><div class = centered-shape id = stop-signal-inner></div></div>","100","go","500","",""
"","-1","-1","500","0","fixation","poldrack-single-stim","208","330962","0.0-144.0","stop_signal","","test","<div class = centerbox><div class = fixation>+</div></div>","none","500","","","","","","","","",""
"","475","90","1850","0","stim","stop-signal","209","332829","0.0-145.0","stop_signal","","test","<div class = shapebox><img class = stim src = /static/experiments/stop_signal/images/square.png></img></div>","77,90","850","90","low","69","<div class = stopbox><div class = centered-shape id = stop-signal></div><div class = centered-shape id = stop-signal-inner></div></div>","100","go","500","",""
"","-1","-1","500","0","fixation","poldrack-single-stim","210","333339","0.0-146.0","stop_signal","","test","<div class = centerbox><div class = fixation>+</div></div>","none","500","","","","","","","","",""
"","506","90","1850","0","stim","stop-signal","211","335196","0.0-147.0","stop_signal","","test","<div class = shapebox><img class = stim src = /static/experiments/stop_signal/images/square.png></img></div>","77,90","850","90","low","70","<div class = stopbox><div class = centered-shape id = stop-signal></div><div class = centered-shape id = stop-signal-inner></div></div>","100","go","500","",""
"","-1","-1","500","0","fixation","poldrack-single-stim","212","335710","0.0-148.0","stop_signal","","test","<div class = centerbox><div class = fixation>+</div></div>","none","500","","","","","","","","",""
"","559","77","1850","0","stim","stop-signal","213","337563","0.0-149.0","stop_signal","","test","<div class = shapebox><img class = stim src = /static/experiments/stop_signal/images/pentagon.png></img></div>","77,90","850","77","low","71","<div class = stopbox><div class = centered-shape id = stop-signal></div><div class = centered-shape id = stop-signal-inner></div></div>","100","go","500","",""
"","-1","-1","500","0","fixation","poldrack-single-stim","214","338074","0.0-150.0","stop_signal","","test","<div class = centerbox><div class = fixation>+</div></div>","none","500","","","","","","","","",""
"","644","90","1850","0","stim","stop-signal","215","339930","0.0-151.0","stop_signal","","test","<div class = shapebox><img class = stim src = /static/experiments/stop_signal/images/hourglass.png></img></div>","77,90","850","90","low","72","<div class = stopbox><div class = centered-shape id = stop-signal></div><div class = centered-shape id = stop-signal-inner></div></div>","100","go","500","",""
"","-1","-1","500","0","fixation","poldrack-single-stim","216","340447","0.0-152.0","stop_signal","","test","<div class = centerbox><div class = fixation>+</div></div>","none","500","","","","","","","","",""
"","710","90","1850","0","stim","stop-signal","217","342303","0.0-153.0","stop_signal","","test","<div class = shapebox><img class = stim src = /static/experiments/stop_signal/images/hourglass.png></img></div>","77,90","850","90","low","73","<div class = stopbox><div class = centered-shape id = stop-signal></div><div class = centered-shape id = stop-signal-inner></div></div>","100","go","500","",""
"","-1","-1","500","0","fixation","poldrack-single-stim","218","342812","0.0-154.0","stop_signal","","test","<div class = centerbox><div class = fixation>+</div></div>","none","500","","","","","","","","",""
"","-1","-1","1850","0","stim","stop-signal","219","344670","0.0-155.0","stop_signal","","test","<div class = shapebox><img class = stim src = /static/experiments/stop_signal/images/tear.png></img></div>","77,90","850","77","low","74","<div class = stopbox><div class = centered-shape id = stop-signal></div><div class = centered-shape id = stop-signal-inner></div></div>","100","stop","500","",""
"","-1","-1","500","0","fixation","poldrack-single-stim","220","345180","0.0-156.0","stop_signal","","test","<div class = centerbox><div class = fixation>+</div></div>","none","500","","","","","","","","",""
"","641","90","1850","0","stim","stop-signal","221","347040","0.0-157.0","stop_signal","","test","<div class = shapebox><img class = stim src = /static/experiments/stop_signal/images/square.png></img></div>","77,90","850","90","low","75","<div class = stopbox><div class = centered-shape id = stop-signal></div><div class = centered-shape id = stop-signal-inner></div></div>","150","go","500","",""
"","-1","-1","500","0","fixation","poldrack-single-stim","222","347547","0.0-158.0","stop_signal","","test","<div class = centerbox><div class = fixation>+</div></div>","none","500","","","","","","","","",""
"","563","77","1850","0","stim","stop-signal","223","349406","0.0-159.0","stop_signal","","test","<div class = shapebox><img class = stim src = /static/experiments/stop_signal/images/tear.png></img></div>","77,90","850","77","low","76","<div class = stopbox><div class = centered-shape id = stop-signal></div><div class = centered-shape id = stop-signal-inner></div></div>","150","go","500","",""
"","-1","-1","500","0","fixation","poldrack-single-stim","224","349914","0.0-160.0","stop_signal","","test","<div class = centerbox><div class = fixation>+</div></div>","none","500","","","","","","","","",""
"","507","77","1850","0","stim","stop-signal","225","351772","0.0-161.0","stop_signal","","test","<div class = shapebox><img class = stim src = /static/experiments/stop_signal/images/tear.png></img></div>","77,90","850","77","low","77","<div class = stopbox><div class = centered-shape id = stop-signal></div><div class = centered-shape id = stop-signal-inner></div></div>","150","go","500","",""
"","-1","-1","500","0","fixation","poldrack-single-stim","226","352281","0.0-162.0","stop_signal","","test","<div class = centerbox><div class = fixation>+</div></div>","none","500","","","","","","","","",""
"","443","77","1850","0","stim","stop-signal","227","354140","0.0-163.0","stop_signal","","test","<div class = shapebox><img class = stim src = /static/experiments/stop_signal/images/tear.png></img></div>","77,90","850","77","low","78","<div class = stopbox><div class = centered-shape id = stop-signal></div><div class = centered-shape id = stop-signal-inner></div></div>","150","go","500","",""
"","-1","-1","500","0","fixation","poldrack-single-stim","228","354649","0.0-164.0","stop_signal","","test","<div class = centerbox><div class = fixation>+</div></div>","none","500","","","","","","","","",""
"","445","90","1850","0","stim","stop-signal","229","356511","0.0-165.0","stop_signal","","test","<div class = shapebox><img class = stim src = /static/experiments/stop_signal/images/hourglass.png></img></div>","77,90","850","90","low","79","<div class = stopbox><div class = centered-shape id = stop-signal></div><div class = centered-shape id = stop-signal-inner></div></div>","150","go","500","",""
"","-1","-1","500","0","fixation","poldrack-single-stim","230","357015","0.0-166.0","stop_signal","","test","<div class = centerbox><div class = fixation>+</div></div>","none","500","","","","","","","","",""
"","647","77","1850","0","stim","stop-signal","231","358882","0.0-167.0","stop_signal","","test","<div class = shapebox><img class = stim src = /static/experiments/stop_signal/images/pentagon.png></img></div>","77,90","850","77","low","80","<div class = stopbox><div class = centered-shape id = stop-signal></div><div class = centered-shape id = stop-signal-inner></div></div>","150","go","500","",""
"","-1","-1","500","0","fixation","poldrack-single-stim","232","359396","0.0-168.0","stop_signal","","test","<div class = centerbox><div class = fixation>+</div></div>","none","500","","","","","","","","",""
"","554","90","1850","0","stim","stop-signal","233","361248","0.0-169.0","stop_signal","","test","<div class = shapebox><img class = stim src = /static/experiments/stop_signal/images/hourglass.png></img></div>","77,90","850","90","low","81","<div class = stopbox><div class = centered-shape id = stop-signal></div><div class = centered-shape id = stop-signal-inner></div></div>","150","go","500","",""
"","-1","-1","500","0","fixation","poldrack-single-stim","234","361752","0.0-170.0","stop_signal","","test","<div class = centerbox><div class = fixation>+</div></div>","none","500","","","","","","","","",""
"","478","77","1850","0","stim","stop-signal","235","363608","0.0-171.0","stop_signal","","test","<div class = shapebox><img class = stim src = /static/experiments/stop_signal/images/tear.png></img></div>","77,90","850","77","low","82","<div class = stopbox><div class = centered-shape id = stop-signal></div><div class = centered-shape id = stop-signal-inner></div></div>","150","go","500","",""
"","-1","-1","500","0","fixation","poldrack-single-stim","236","364115","0.0-172.0","stop_signal","","test","<div class = centerbox><div class = fixation>+</div></div>","none","500","","","","","","","","",""
"","563","90","1850","0","stim","stop-signal","237","365974","0.0-173.0","stop_signal","","test","<div class = shapebox><img class = stim src = /static/experiments/stop_signal/images/square.png></img></div>","77,90","850","90","low","83","<div class = stopbox><div class = centered-shape id = stop-signal></div><div class = centered-shape id = stop-signal-inner></div></div>","150","go","500","",""
"","-1","-1","500","0","fixation","poldrack-single-stim","238","366483","0.0-174.0","stop_signal","","test","<div class = centerbox><div class = fixation>+</div></div>","none","500","","","","","","","","",""
"","707","77","1850","0","stim","stop-signal","239","368344","0.0-175.0","stop_signal","","test","<div class = shapebox><img class = stim src = /static/experiments/stop_signal/images/tear.png></img></div>","77,90","850","77","low","84","<div class = stopbox><div class = centered-shape id = stop-signal></div><div class = centered-shape id = stop-signal-inner></div></div>","150","go","500","",""
"","-1","-1","500","0","fixation","poldrack-single-stim","240","368849","0.0-176.0","stop_signal","","test","<div class = centerbox><div class = fixation>+</div></div>","none","500","","","","","","","","",""
"","525","77","1850","0","stim","stop-signal","241","370703","0.0-177.0","stop_signal","","test","<div class = shapebox><img class = stim src = /static/experiments/stop_signal/images/tear.png></img></div>","77,90","850","77","low","85","<div class = stopbox><div class = centered-shape id = stop-signal></div><div class = centered-shape id = stop-signal-inner></div></div>","150","go","500","",""
"","-1","-1","500","0","fixation","poldrack-single-stim","242","371216","0.0-178.0","stop_signal","","test","<div class = centerbox><div class = fixation>+</div></div>","none","500","","","","","","","","",""
"","581","77","1850","0","stim","stop-signal","243","373075","0.0-179.0","stop_signal","","test","<div class = shapebox><img class = stim src = /static/experiments/stop_signal/images/pentagon.png></img></div>","77,90","850","77","low","86","<div class = stopbox><div class = centered-shape id = stop-signal></div><div class = centered-shape id = stop-signal-inner></div></div>","150","go","500","",""
"","-1","-1","500","0","fixation","poldrack-single-stim","244","373583","0.0-180.0","stop_signal","","test","<div class = centerbox><div class = fixation>+</div></div>","none","500","","","","","","","","",""
"","590","90","1850","0","stim","stop-signal","245","375447","0.0-181.0","stop_signal","","test","<div class = shapebox><img class = stim src = /static/experiments/stop_signal/images/pentagon.png></img></div>","77,90","850","77","low","87","<div class = stopbox><div class = centered-shape id = stop-signal></div><div class = centered-shape id = stop-signal-inner></div></div>","150","go","500","",""
"","-1","-1","500","0","fixation","poldrack-single-stim","246","375962","0.0-182.0","stop_signal","","test","<div class = centerbox><div class = fixation>+</div></div>","none","500","","","","","","","","",""
"","620","90","1850","0","stim","stop-signal","247","377816","0.0-183.0","stop_signal","","test","<div class = shapebox><img class = stim src = /static/experiments/stop_signal/images/square.png></img></div>","77,90","850","90","low","88","<div class = stopbox><div class = centered-shape id = stop-signal></div><div class = centered-shape id = stop-signal-inner></div></div>","150","go","500","",""
"","-1","-1","500","0","fixation","poldrack-single-stim","248","378329","0.0-184.0","stop_signal","","test","<div class = centerbox><div class = fixation>+</div></div>","none","500","","","","","","","","",""
"","396","90","1850","0","stim","stop-signal","249","380184","0.0-185.0","stop_signal","","test","<div class = shapebox><img class = stim src = /static/experiments/stop_signal/images/hourglass.png></img></div>","77,90","850","90","low","89","<div class = stopbox><div class = centered-shape id = stop-signal></div><div class = centered-shape id = stop-signal-inner></div></div>","150","stop","500","",""
"","-1","-1","500","0","fixation","poldrack-single-stim","250","380697","0.0-186.0","stop_signal","","test","<div class = centerbox><div class = fixation>+</div></div>","none","500","","","","","","","","",""
"","-1","-1","1850","0","stim","stop-signal","251","382551","0.0-187.0","stop_signal","","test","<div class = shapebox><img class = stim src = /static/experiments/stop_signal/images/tear.png></img></div>","77,90","850","77","low","90","<div class = stopbox><div class = centered-shape id = stop-signal></div><div class = centered-shape id = stop-signal-inner></div></div>","100","stop","500","",""
"","-1","-1","500","0","fixation","poldrack-single-stim","252","383055","0.0-188.0","stop_signal","","test","<div class = centerbox><div class = fixation>+</div></div>","none","500","","","","","","","","",""
"","-1","-1","1850","0","stim","stop-signal","253","384913","0.0-189.0","stop_signal","","test","<div class = shapebox><img class = stim src = /static/experiments/stop_signal/images/hourglass.png></img></div>","77,90","850","90","low","91","<div class = stopbox><div class = centered-shape id = stop-signal></div><div class = centered-shape id = stop-signal-inner></div></div>","150","stop","500","",""
"","-1","-1","500","0","fixation","poldrack-single-stim","254","385417","0.0-190.0","stop_signal","","test","<div class = centerbox><div class = fixation>+</div></div>","none","500","","","","","","","","",""
"","708","90","1850","0","stim","stop-signal","255","387281","0.0-191.0","stop_signal","","test","<div class = shapebox><img class = stim src = /static/experiments/stop_signal/images/pentagon.png></img></div>","77,90","850","77","low","92","<div class = stopbox><div class = centered-shape id = stop-signal></div><div class = centered-shape id = stop-signal-inner></div></div>","200","go","500","",""
"","-1","-1","500","0","fixation","poldrack-single-stim","256","387784","0.0-192.0","stop_signal","","test","<div class = centerbox><div class = fixation>+</div></div>","none","500","","","","","","","","",""
"","637","90","1850","0","stim","stop-signal","257","389651","0.0-193.0","stop_signal","","test","<div class = shapebox><img class = stim src = /static/experiments/stop_signal/images/hourglass.png></img></div>","77,90","850","90","low","93","<div class = stopbox><div class = centered-shape id = stop-signal></div><div class = centered-shape id = stop-signal-inner></div></div>","200","go","500","",""
"","-1","-1","500","0","fixation","poldrack-single-stim","258","390160","0.0-194.0","stop_signal","","test","<div class = centerbox><div class = fixation>+</div></div>","none","500","","","","","","","","",""
"","742","90","1850","0","stim","stop-signal","259","392018","0.0-195.0","stop_signal","","test","<div class = shapebox><img class = stim src = /static/experiments/stop_signal/images/square.png></img></div>","77,90","850","90","low","94","<div class = stopbox><div class = centered-shape id = stop-signal></div><div class = centered-shape id = stop-signal-inner></div></div>","200","go","500","",""
"","-1","-1","500","0","fixation","poldrack-single-stim","260","392535","0.0-196.0","stop_signal","","test","<div class = centerbox><div class = fixation>+</div></div>","none","500","","","","","","","","",""
"","-1","-1","1850","0","stim","stop-signal","261","394389","0.0-197.0","stop_signal","","test","<div class = shapebox><img class = stim src = /static/experiments/stop_signal/images/pentagon.png></img></div>","77,90","850","77","low","95","<div class = stopbox><div class = centered-shape id = stop-signal></div><div class = centered-shape id = stop-signal-inner></div></div>","200","stop","500","",""
"","-1","-1","500","0","fixation","poldrack-single-stim","262","394901","0.0-198.0","stop_signal","","test","<div class = centerbox><div class = fixation>+</div></div>","none","500","","","","","","","","",""
"","599","90","1850","0","stim","stop-signal","263","396760","0.0-199.0","stop_signal","","test","<div class = shapebox><img class = stim src = /static/experiments/stop_signal/images/hourglass.png></img></div>","77,90","850","90","low","96","<div class = stopbox><div class = centered-shape id = stop-signal></div><div class = centered-shape id = stop-signal-inner></div></div>","250","go","500","",""
"","-1","-1","500","0","fixation","poldrack-single-stim","264","397268","0.0-200.0","stop_signal","","test","<div class = centerbox><div class = fixation>+</div></div>","none","500","","","","","","","","",""
"","-1","-1","1850","0","stim","stop-signal","265","399136","0.0-201.0","stop_signal","","test","<div class = shapebox><img class = stim src = /static/experiments/stop_signal/images/pentagon.png></img></div>","77,90","850","77","low","97","<div class = stopbox><div class = centered-shape id = stop-signal></div><div class = centered-shape id = stop-signal-inner></div></div>","250","stop","500","",""
"","-1","-1","500","0","fixation","poldrack-single-stim","266","399646","0.0-202.0","stop_signal","","test","<div class = centerbox><div class = fixation>+</div></div>","none","500","","","","","","","","",""
"","831","90","1850","0","stim","stop-signal","267","401502","0.0-203.0","stop_signal","","test","<div class = shapebox><img class = stim src = /static/experiments/stop_signal/images/square.png></img></div>","77,90","850","90","low","98","<div class = stopbox><div class = centered-shape id = stop-signal></div><div class = centered-shape id = stop-signal-inner></div></div>","300","stop","500","",""
"","-1","-1","500","0","fixation","poldrack-single-stim","268","402014","0.0-204.0","stop_signal","","test","<div class = centerbox><div class = fixation>+</div></div>","none","500","","","","","","","","",""
"","479","77","1850","0","stim","stop-signal","269","403869","0.0-205.0","stop_signal","","test","<div class = shapebox><img class = stim src = /static/experiments/stop_signal/images/pentagon.png></img></div>","77,90","850","77","low","99","<div class = stopbox><div class = centered-shape id = stop-signal></div><div class = centered-shape id = stop-signal-inner></div></div>","250","go","500","",""
"<div class = centerbox><p class = block-text><br>Done with a test block. Please take this time to read your feedback and to take a short break! Press <strong>enter</strong> to continue after you have read the feedback.</p><p class = block-text><strong>Average reaction time:  586 ms. Accuracy for non-star trials: 95%</strong></p></div>","31230","13","31230","1000","feedback","poldrack-text","270","435101","0.0-206.0","stop_signal","","test","","","","","","","","","","","",""
"","-1","-1","500","0","fixation","poldrack-single-stim","271","436615","0.0-207.0","stop_signal","","test","<div class = centerbox><div class = fixation>+</div></div>","none","500","","","","","","","","",""
"","648","77","1850","0","stim","stop-signal","272","438472","0.0-208.0","stop_signal","","test","<div class = shapebox><img class = stim src = /static/experiments/stop_signal/images/tear.png></img></div>","77,90","850","77","low","100","<div class = stopbox><div class = centered-shape id = stop-signal></div><div class = centered-shape id = stop-signal-inner></div></div>","250","go","500","",""
"","-1","-1","500","0","fixation","poldrack-single-stim","273","438982","0.0-209.0","stop_signal","","test","<div class = centerbox><div class = fixation>+</div></div>","none","500","","","","","","","","",""
"","592","90","1850","0","stim","stop-signal","274","440839","0.0-210.0","stop_signal","","test","<div class = shapebox><img class = stim src = /static/experiments/stop_signal/images/hourglass.png></img></div>","77,90","850","90","low","101","<div class = stopbox><div class = centered-shape id = stop-signal></div><div class = centered-shape id = stop-signal-inner></div></div>","250","go","500","",""
"","-1","-1","500","0","fixation","poldrack-single-stim","275","441346","0.0-211.0","stop_signal","","test","<div class = centerbox><div class = fixation>+</div></div>","none","500","","","","","","","","",""
"","573","90","1850","0","stim","stop-signal","276","443206","0.0-212.0","stop_signal","","test","<div class = shapebox><img class = stim src = /static/experiments/stop_signal/images/hourglass.png></img></div>","77,90","850","90","low","102","<div class = stopbox><div class = centered-shape id = stop-signal></div><div class = centered-shape id = stop-signal-inner></div></div>","250","go","500","",""
"","-1","-1","500","0","fixation","poldrack-single-stim","277","443720","0.0-213.0","stop_signal","","test","<div class = centerbox><div class = fixation>+</div></div>","none","500","","","","","","","","",""
"","484","90","1850","0","stim","stop-signal","278","445576","0.0-214.0","stop_signal","","test","<div class = shapebox><img class = stim src = /static/experiments/stop_signal/images/square.png></img></div>","77,90","850","90","low","103","<div class = stopbox><div class = centered-shape id = stop-signal></div><div class = centered-shape id = stop-signal-inner></div></div>","250","go","500","",""
"","-1","-1","500","0","fixation","poldrack-single-stim","279","446086","0.0-215.0","stop_signal","","test","<div class = centerbox><div class = fixation>+</div></div>","none","500","","","","","","","","",""
"","542","77","1850","0","stim","stop-signal","280","447939","0.0-216.0","stop_signal","","test","<div class = shapebox><img class = stim src = /static/experiments/stop_signal/images/pentagon.png></img></div>","77,90","850","77","low","104","<div class = stopbox><div class = centered-shape id = stop-signal></div><div class = centered-shape id = stop-signal-inner></div></div>","250","go","500","",""
"","-1","-1","500","0","fixation","poldrack-single-stim","281","448453","0.0-217.0","stop_signal","","test","<div class = centerbox><div class = fixation>+</div></div>","none","500","","","","","","","","",""
"","640","77","1850","0","stim","stop-signal","282","450307","0.0-218.0","stop_signal","","test","<div class = shapebox><img class = stim src = /static/experiments/stop_signal/images/pentagon.png></img></div>","77,90","850","77","low","105","<div class = stopbox><div class = centered-shape id = stop-signal></div><div class = centered-shape id = stop-signal-inner></div></div>","250","go","500","",""
"","-1","-1","500","0","fixation","poldrack-single-stim","283","450823","0.0-219.0","stop_signal","","test","<div class = centerbox><div class = fixation>+</div></div>","none","500","","","","","","","","",""
"","654","90","1850","0","stim","stop-signal","284","452683","0.0-220.0","stop_signal","","test","<div class = shapebox><img class = stim src = /static/experiments/stop_signal/images/hourglass.png></img></div>","77,90","850","90","low","106","<div class = stopbox><div class = centered-shape id = stop-signal></div><div class = centered-shape id = stop-signal-inner></div></div>","250","go","500","",""
"","-1","-1","500","0","fixation","poldrack-single-stim","285","453191","0.0-221.0","stop_signal","","test","<div class = centerbox><div class = fixation>+</div></div>","none","500","","","","","","","","",""
"","567","77","1850","0","stim","stop-signal","286","455054","0.0-222.0","stop_signal","","test","<div class = shapebox><img class = stim src = /static/experiments/stop_signal/images/tear.png></img></div>","77,90","850","77","low","107","<div class = stopbox><div class = centered-shape id = stop-signal></div><div class = centered-shape id = stop-signal-inner></div></div>","250","go","500","",""
"","-1","-1","500","0","fixation","poldrack-single-stim","287","455557","0.0-223.0","stop_signal","","test","<div class = centerbox><div class = fixation>+</div></div>","none","500","","","","","","","","",""
"","624","77","1850","0","stim","stop-signal","288","457424","0.0-224.0","stop_signal","","test","<div class = shapebox><img class = stim src = /static/experiments/stop_signal/images/pentagon.png></img></div>","77,90","850","77","low","108","<div class = stopbox><div class = centered-shape id = stop-signal></div><div class = centered-shape id = stop-signal-inner></div></div>","250","go","500","",""
"","-1","-1","500","0","fixation","poldrack-single-stim","289","457935","0.0-225.0","stop_signal","","test","<div class = centerbox><div class = fixation>+</div></div>","none","500","","","","","","","","",""
"","527","90","1850","0","stim","stop-signal","290","459791","0.0-226.0","stop_signal","","test","<div class = shapebox><img class = stim src = /static/experiments/stop_signal/images/square.png></img></div>","77,90","850","90","low","109","<div class = stopbox><div class = centered-shape id = stop-signal></div><div class = centered-shape id = stop-signal-inner></div></div>","250","go","500","",""
"","-1","-1","500","0","fixation","poldrack-single-stim","291","460308","0.0-227.0","stop_signal","","test","<div class = centerbox><div class = fixation>+</div></div>","none","500","","","","","","","","",""
"","619","77","1850","0","stim","stop-signal","292","462168","0.0-228.0","stop_signal","","test","<div class = shapebox><img class = stim src = /static/experiments/stop_signal/images/tear.png></img></div>","77,90","850","77","low","110","<div class = stopbox><div class = centered-shape id = stop-signal></div><div class = centered-shape id = stop-signal-inner></div></div>","250","go","500","",""
"","-1","-1","500","0","fixation","poldrack-single-stim","293","462674","0.0-229.0","stop_signal","","test","<div class = centerbox><div class = fixation>+</div></div>","none","500","","","","","","","","",""
"","627","77","1850","0","stim","stop-signal","294","464540","0.0-230.0","stop_signal","","test","<div class = shapebox><img class = stim src = /static/experiments/stop_signal/images/pentagon.png></img></div>","77,90","850","77","low","111","<div class = stopbox><div class = centered-shape id = stop-signal></div><div class = centered-shape id = stop-signal-inner></div></div>","250","go","500","",""
"","-1","-1","500","0","fixation","poldrack-single-stim","295","465053","0.0-231.0","stop_signal","","test","<div class = centerbox><div class = fixation>+</div></div>","none","500","","","","","","","","",""
"","552","90","1850","0","stim","stop-signal","296","466908","0.0-232.0","stop_signal","","test","<div class = shapebox><img class = stim src = /static/experiments/stop_signal/images/hourglass.png></img></div>","77,90","850","90","low","112","<div class = stopbox><div class = centered-shape id = stop-signal></div><div class = centered-shape id = stop-signal-inner></div></div>","250","go","500","",""
"","-1","-1","500","0","fixation","poldrack-single-stim","297","467416","0.0-233.0","stop_signal","","test","<div class = centerbox><div class = fixation>+</div></div>","none","500","","","","","","","","",""
"","573","77","1850","0","stim","stop-signal","298","469271","0.0-234.0","stop_signal","","test","<div class = shapebox><img class = stim src = /static/experiments/stop_signal/images/tear.png></img></div>","77,90","850","77","low","113","<div class = stopbox><div class = centered-shape id = stop-signal></div><div class = centered-shape id = stop-signal-inner></div></div>","250","go","500","",""
"","-1","-1","500","0","fixation","poldrack-single-stim","299","469775","0.0-235.0","stop_signal","","test","<div class = centerbox><div class = fixation>+</div></div>","none","500","","","","","","","","",""
"","614","77","1850","0","stim","stop-signal","300","471637","0.0-236.0","stop_signal","","test","<div class = shapebox><img class = stim src = /static/experiments/stop_signal/images/pentagon.png></img></div>","77,90","850","77","low","114","<div class = stopbox><div class = centered-shape id = stop-signal></div><div class = centered-shape id = stop-signal-inner></div></div>","250","go","500","",""
"","-1","-1","500","0","fixation","poldrack-single-stim","301","472142","0.0-237.0","stop_signal","","test","<div class = centerbox><div class = fixation>+</div></div>","none","500","","","","","","","","",""
"","551","77","1850","0","stim","stop-signal","302","473998","0.0-238.0","stop_signal","","test","<div class = shapebox><img class = stim src = /static/experiments/stop_signal/images/tear.png></img></div>","77,90","850","77","low","115","<div class = stopbox><div class = centered-shape id = stop-signal></div><div class = centered-shape id = stop-signal-inner></div></div>","250","go","500","",""
"","-1","-1","500","0","fixation","poldrack-single-stim","303","474509","0.0-239.0","stop_signal","","test","<div class = centerbox><div class = fixation>+</div></div>","none","500","","","","","","","","",""
"","568","90","1850","0","stim","stop-signal","304","476371","0.0-240.0","stop_signal","","test","<div class = shapebox><img class = stim src = /static/experiments/stop_signal/images/square.png></img></div>","77,90","850","90","low","116","<div class = stopbox><div class = centered-shape id = stop-signal></div><div class = centered-shape id = stop-signal-inner></div></div>","250","go","500","",""
"","-1","-1","500","0","fixation","poldrack-single-stim","305","476876","0.0-241.0","stop_signal","","test","<div class = centerbox><div class = fixation>+</div></div>","none","500","","","","","","","","",""
"","595","90","1850","0","stim","stop-signal","306","478739","0.0-242.0","stop_signal","","test","<div class = shapebox><img class = stim src = /static/experiments/stop_signal/images/square.png></img></div>","77,90","850","90","low","117","<div class = stopbox><div class = centered-shape id = stop-signal></div><div class = centered-shape id = stop-signal-inner></div></div>","250","stop","500","",""
"","-1","-1","500","0","fixation","poldrack-single-stim","307","479242","0.0-243.0","stop_signal","","test","<div class = centerbox><div class = fixation>+</div></div>","none","500","","","","","","","","",""
"","-1","-1","1850","0","stim","stop-signal","308","481097","0.0-244.0","stop_signal","","test","<div class = shapebox><img class = stim src = /static/experiments/stop_signal/images/pentagon.png></img></div>","77,90","850","77","low","118","<div class = stopbox><div class = centered-shape id = stop-signal></div><div class = centered-shape id = stop-signal-inner></div></div>","200","stop","500","",""
"","-1","-1","500","0","fixation","poldrack-single-stim","309","481609","0.0-245.0","stop_signal","","test","<div class = centerbox><div class = fixation>+</div></div>","none","500","","","","","","","","",""
"","550","90","1850","0","stim","stop-signal","310","483470","0.0-246.0","stop_signal","","test","<div class = shapebox><img class = stim src = /static/experiments/stop_signal/images/hourglass.png></img></div>","77,90","850","90","low","119","<div class = stopbox><div class = centered-shape id = stop-signal></div><div class = centered-shape id = stop-signal-inner></div></div>","250","go","500","",""
"","-1","-1","500","0","fixation","poldrack-single-stim","311","483976","0.0-247.0","stop_signal","","test","<div class = centerbox><div class = fixation>+</div></div>","none","500","","","","","","","","",""
"","462","77","1850","0","stim","stop-signal","312","485837","0.0-248.0","stop_signal","","test","<div class = shapebox><img class = stim src = /static/experiments/stop_signal/images/tear.png></img></div>","77,90","850","77","low","120","<div class = stopbox><div class = centered-shape id = stop-signal></div><div class = centered-shape id = stop-signal-inner></div></div>","250","stop","500","",""
"","-1","-1","500","0","fixation","poldrack-single-stim","313","486343","0.0-249.0","stop_signal","","test","<div class = centerbox><div class = fixation>+</div></div>","none","500","","","","","","","","",""
"","583","90","1850","0","stim","stop-signal","314","488205","0.0-250.0","stop_signal","","test","<div class = shapebox><img class = stim src = /static/experiments/stop_signal/images/hourglass.png></img></div>","77,90","850","90","low","121","<div class = stopbox><div class = centered-shape id = stop-signal></div><div class = centered-shape id = stop-signal-inner></div></div>","200","go","500","",""
"","-1","-1","500","0","fixation","poldrack-single-stim","315","488710","0.0-251.0","stop_signal","","test","<div class = centerbox><div class = fixation>+</div></div>","none","500","","","","","","","","",""
"","664","90","1850","0","stim","stop-signal","316","490574","0.0-252.0","stop_signal","","test","<div class = shapebox><img class = stim src = /static/experiments/stop_signal/images/square.png></img></div>","77,90","850","90","low","122","<div class = stopbox><div class = centered-shape id = stop-signal></div><div class = centered-shape id = stop-signal-inner></div></div>","200","go","500","",""
"","-1","-1","500","0","fixation","poldrack-single-stim","317","491077","0.0-253.0","stop_signal","","test","<div class = centerbox><div class = fixation>+</div></div>","none","500","","","","","","","","",""
"","-1","-1","1850","0","stim","stop-signal","318","492933","0.0-254.0","stop_signal","","test","<div class = shapebox><img class = stim src = /static/experiments/stop_signal/images/tear.png></img></div>","77,90","850","77","low","123","<div class = stopbox><div class = centered-shape id = stop-signal></div><div class = centered-shape id = stop-signal-inner></div></div>","200","stop","500","",""
"","-1","-1","500","0","fixation","poldrack-single-stim","319","493444","0.0-255.0","stop_signal","","test","<div class = centerbox><div class = fixation>+</div></div>","none","500","","","","","","","","",""
"","603","90","1850","0","stim","stop-signal","320","495299","0.0-256.0","stop_signal","","test","<div class = shapebox><img class = stim src = /static/experiments/stop_signal/images/square.png></img></div>","77,90","850","90","low","124","<div class = stopbox><div class = centered-shape id = stop-signal></div><div class = centered-shape id = stop-signal-inner></div></div>","250","stop","500","",""
"","-1","-1","500","0","fixation","poldrack-single-stim","321","495810","0.0-257.0","stop_signal","","test","<div class = centerbox><div class = fixation>+</div></div>","none","500","","","","","","","","",""
"","634","77","1850","0","stim","stop-signal","322","497673","0.0-258.0","stop_signal","","test","<div class = shapebox><img class = stim src = /static/experiments/stop_signal/images/pentagon.png></img></div>","77,90","850","77","low","125","<div class = stopbox><div class = centered-shape id = stop-signal></div><div class = centered-shape id = stop-signal-inner></div></div>","200","go","500","",""
"","-1","-1","500","0","fixation","poldrack-single-stim","323","498178","0.0-259.0","stop_signal","","test","<div class = centerbox><div class = fixation>+</div></div>","none","500","","","","","","","","",""
"","605","77","1850","0","stim","stop-signal","324","500042","0.0-260.0","stop_signal","","test","<div class = shapebox><img class = stim src = /static/experiments/stop_signal/images/tear.png></img></div>","77,90","850","77","low","126","<div class = stopbox><div class = centered-shape id = stop-signal></div><div class = centered-shape id = stop-signal-inner></div></div>","200","go","500","",""
"","-1","-1","500","0","fixation","poldrack-single-stim","325","500552","0.0-261.0","stop_signal","","test","<div class = centerbox><div class = fixation>+</div></div>","none","500","","","","","","","","",""
