"text","rt","key_press","block_duration","timing_post_trial","trial_id","trial_type","trial_index","time_elapsed","internal_node_id","exp_id","view_history","exp_stage","stimulus","possible_responses","stim_duration","correct_response","condition","trial_num","SS_stimulus","SS_delay","SS_trial_type","SS_duration","responses","credit_var"
"<div class = centerbox><p class = center-block-text>Welcome to the experiment. This experiment will take about 30 minutes. Press <strong>enter</strong> to begin.</p></div>","6618","13","6618","0","instruction","poldrack-text","0","6619","0.0-0.0-0.0","stop_signal","","","","","","","","","","","","","",""
"","80241","","","","instruction","poldrack-instructions","1","86860","0.0-0.0-1.0","stop_signal","[{""page_index"":0,""viewing_time"":28460},{""page_index"":1,""viewing_time"":51780}]","","","","","","","","","","","","",""
"<div class = centerbox><p class = block-text>We will now start with a practice session. In this practice  concentrate on responding quickly and accurately to each shape. Press <strong>enter</strong> to continue.</p></div>","1467","13","1467","1000","feedback","poldrack-text","2","89337","0.0-1.0-0.0","stop_signal","","practice","","","","","","","","","","","",""
"","-1","-1","500","0","fixation","poldrack-single-stim","3","90860","0.0-1.0-1.0","stop_signal","","practice","<div class = shapebox><div class = fixation>+</div></div>","none","500","","","","","","","","",""
"","950","90","1850","0","stim","poldrack-single-stim","4","92719","0.0-1.0-2.0","stop_signal","","NoSS_practice","<div class = shapebox><img class = stim src = /static/experiments/stop_signal/images/square.png></img></div>","77,90","850","90","NoSS_practice","0","","","","","",""
"","-1","-1","500","0","fixation","poldrack-single-stim","5","93234","0.0-1.0-3.0","stop_signal","","practice","<div class = shapebox><div class = fixation>+</div></div>","none","500","","","","","","","","",""
"","719","77","1850","0","stim","poldrack-single-stim","6","95098","0.0-1.0-4.0","stop_signal","","NoSS_practice","<div class = shapebox><img class = stim src = /static/experiments/stop_signal/images/tear.png></img></div>","77,90","850","77","NoSS_practice","1","","","","","",""
"","-1","-1","500","0","fixation","poldrack-single-stim","7","95610","0.0-1.0-5.0","stop_signal","","practice","<div class = shapebox><div class = fixation>+</div></div>","none","500","","","","","","","","",""
"","775","90","1850","0","stim","poldrack-single-stim","8","97467","0.0-1.0-6.0","stop_signal","","NoSS_practice","<div class = shapebox><img class = stim src = /static/experiments/stop_signal/images/hourglass.png></img></div>","77,90","850","90","NoSS_practice","2","","","","","",""
"","-1","-1","500","0","fixation","poldrack-single-stim","9","97978","0.0-1.0-7.0","stop_signal","","practice","<div class = shapebox><div class = fixation>+</div></div>","none","500","","","","","","","","",""
"","855","90","1850","0","stim","poldrack-single-stim","10","99843","0.0-1.0-8.0","stop_signal","","NoSS_practice","<div class = shapebox><img class = stim src = /static/experiments/stop_signal/images/square.png></img></div>","77,90","850","90","NoSS_practice","3","","","","","",""
"","-1","-1","500","0","fixation","poldrack-single-stim","11","100357","0.0-1.0-9.0","stop_signal","","practice","<div class = shapebox><div class = fixation>+</div></div>","none","500","","","","","","","","",""
"","885","90","1850","0","stim","poldrack-single-stim","12","102220","0.0-1.0-10.0","stop_signal","","NoSS_practice","<div class = shapebox><img class = stim src = /static/experiments/stop_signal/images/hourglass.png></img></div>","77,90","850","90","NoSS_practice","4","","","","","",""
"","-1","-1","500","0","fixation","poldrack-single-stim","13","102737","0.0-1.0-11.0","stop_signal","","practice","<div class = shapebox><div class = fixation>+</div></div>","none","500","","","","","","","","",""
"","704","77","1850","0","stim","poldrack-single-stim","14","104590","0.0-1.0-12.0","stop_signal","","NoSS_practice","<div class = shapebox><img class = stim src = /static/experiments/stop_signal/images/pentagon.png></img></div>","77,90","850","77","NoSS_practice","5","","","","","",""
"","-1","-1","500","0","fixation","poldrack-single-stim","15","105102","0.0-1.0-13.0","stop_signal","","practice","<div class = shapebox><div class = fixation>+</div></div>","none","500","","","","","","","","",""
"","595","90","1850","0","stim","poldrack-single-stim","16","106966","0.0-1.0-14.0","stop_signal","","NoSS_practice","<div class = shapebox><img class = stim src = /static/experiments/stop_signal/images/hourglass.png></img></div>","77,90","850","90","NoSS_practice","6","","","","","",""
"","-1","-1","500","0","fixation","poldrack-single-stim","17","107480","0.0-1.0-15.0","stop_signal","","practice","<div class = shapebox><div class = fixation>+</div></div>","none","500","","","","","","","","",""
"","-1","-1","1850","0","stim","poldrack-single-stim","18","109346","0.0-1.0-16.0","stop_signal","","NoSS_practice","<div class = shapebox><img class = stim src = /static/experiments/stop_signal/images/square.png></img></div>","77,90","850","90","NoSS_practice","7","","","","","",""
"","-1","-1","500","0","fixation","poldrack-single-stim","19","109863","0.0-1.0-17.0","stop_signal","","practice","<div class = shapebox><div class = fixation>+</div></div>","none","500","","","","","","","","",""
"","585","77","1850","0","stim","poldrack-single-stim","20","111725","0.0-1.0-18.0","stop_signal","","NoSS_practice","<div class = shapebox><img class = stim src = /static/experiments/stop_signal/images/pentagon.png></img></div>","77,90","850","77","NoSS_practice","8","","","","","",""
"","-1","-1","500","0","fixation","poldrack-single-stim","21","112238","0.0-1.0-19.0","stop_signal","","practice","<div class = shapebox><div class = fixation>+</div></div>","none","500","","","","","","","","",""
"","642","77","1850","0","stim","poldrack-single-stim","22","114102","0.0-1.0-20.0","stop_signal","","NoSS_practice","<div class = shapebox><img class = stim src = /static/experiments/stop_signal/images/tear.png></img></div>","77,90","850","77","NoSS_practice","9","","","","","",""
"","-1","-1","500","0","fixation","poldrack-single-stim","23","114619","0.0-1.0-21.0","stop_signal","","practice","<div class = shapebox><div class = fixation>+</div></div>","none","500","","","","","","","","",""
"","565","77","1850","0","stim","poldrack-single-stim","24","116474","0.0-1.0-22.0","stop_signal","","NoSS_practice","<div class = shapebox><img class = stim src = /static/experiments/stop_signal/images/tear.png></img></div>","77,90","850","77","NoSS_practice","10","","","","","",""
"","-1","-1","500","0","fixation","poldrack-single-stim","25","116988","0.0-1.0-23.0","stop_signal","","practice","<div class = shapebox><div class = fixation>+</div></div>","none","500","","","","","","","","",""
"","669","77","1850","0","stim","poldrack-single-stim","26","118854","0.0-1.0-24.0","stop_signal","","NoSS_practice","<div class = shapebox><img class = stim src = /static/experiments/stop_signal/images/pentagon.png></img></div>","77,90","850","77","NoSS_practice","11","","","","","",""
"<div class = centerbox><p class = block-text></p><p class = block-text><strong>Average reaction time:  704 ms. Accuracy for non-star trials: 92%</strong></p><p class = block-text>For the rest of the experiment, on some proportion of trials a black ""stop signal"" in the shape of a star will appear around the shape. When this happens please try your best to stop your response and press nothing on that trial.</p><p class = block-text>The star will appear around the same time or shortly after the shape appears. Because of this, you will not always be able to successfully stop when a star appears. However, if you continue to try very hard to stop when a star appears, you will be able to stop sometimes but not always.</p><p class = block-text><strong>Please balance the requirement to respond quickly and accurately to the shapes while trying very hard to stop to the stop signal.</strong></p><p class = block-text>Press <strong>Enter</strong> to continue</p></div>","6731","13","6731","1000","feedback","poldrack-text","27","125594","0.0-2.0-0.0","stop_signal","","practice","","","","","","","","","","","",""
"","-1","-1","500","0","fixation","poldrack-single-stim","28","127121","0.0-2.0-1.0","stop_signal","","practice","<div class = shapebox><div class = fixation>+</div></div>","none","500","","","","","","","","",""
"","671","90","1850","0","stim","stop-signal","29","128984","0.0-2.0-2.0","stop_signal","","practice","<div class = shapebox><img class = stim src = /static/experiments/stop_signal/images/square.png></img></div>","77,90","850","90","practice","0","<div class = stopbox><div class = centered-shape id = stop-signal></div><div class = centered-shape id = stop-signal-inner></div></div>","250","go","500","",""
"","-1","-1","500","0","fixation","poldrack-single-stim","30","129497","0.0-2.0-3.0","stop_signal","","practice","<div class = shapebox><div class = fixation>+</div></div>","none","500","","","","","","","","",""
"","639","90","1850","0","stim","stop-signal","31","131364","0.0-2.0-4.0","stop_signal","","practice","<div class = shapebox><img class = stim src = /static/experiments/stop_signal/images/hourglass.png></img></div>","77,90","850","90","practice","1","<div class = stopbox><div class = centered-shape id = stop-signal></div><div class = centered-shape id = stop-signal-inner></div></div>","250","go","500","",""
"","-1","-1","500","0","fixation","poldrack-single-stim","32","131881","0.0-2.0-5.0","stop_signal","","practice","<div class = shapebox><div class = fixation>+</div></div>","none","500","","","","","","","","",""
"","-1","-1","1850","0","stim","stop-signal","33","133747","0.0-2.0-6.0","stop_signal","","practice","<div class = shapebox><img class = stim src = /static/experiments/stop_signal/images/square.png></img></div>","77,90","850","90","practice","2","<div class = stopbox><div class = centered-shape id = stop-signal></div><div class = centered-shape id = stop-signal-inner></div></div>","250","stop","500","",""
"","-1","-1","500","0","fixation","poldrack-single-stim","34","134261","0.0-2.0-7.0","stop_signal","","practice","<div class = shapebox><div class = fixation>+</div></div>","none","500","","","","","","","","",""
"","596","77","1850","0","stim","stop-signal","35","136126","0.0-2.0-8.0","stop_signal","","practice","<div class = shapebox><img class = stim src = /static/experiments/stop_signal/images/tear.png></img></div>","77,90","850","77","practice","3","<div class = stopbox><div class = centered-shape id = stop-signal></div><div class = centered-shape id = stop-signal-inner></div></div>","250","go","500","",""
"","-1","-1","500","0","fixation","poldrack-single-stim","36","136638","0.0-2.0-9.0","stop_signal","","practice","<div class = shapebox><div class = fixation>+</div></div>","none","500","","","","","","","","",""
"","611","90","1850","0","stim","stop-signal","37","138501","0.0-2.0-10.0","stop_signal","","practice","<div class = shapebox><img class = stim src = /static/experiments/stop_signal/images/square.png></img></div>","77,90","850","90","practice","4","<div class = stopbox><div class = centered-shape id = stop-signal></div><div class = centered-shape id = stop-signal-inner></div></div>","250","go","500","",""
"","-1","-1","500","0","fixation","poldrack-single-stim","38","139016","0.0-2.0-11.0","stop_signal","","practice","<div class = shapebox><div class = fixation>+</div></div>","none","500","","","","","","","","",""
"","657","90","1850","0","stim","stop-signal","39","140882","0.0-2.0-12.0","stop_signal","","practice","<div class = shapebox><img class = stim src = /static/experiments/stop_signal/images/pentagon.png></img></div>","77,90","850","77","practice","5","<div class = stopbox><div class = centered-shape id = stop-signal></div><div class = centered-shape id = stop-signal-inner></div></div>","250","go","500","",""
"","-1","-1","500","0","fixation","poldrack-single-stim","40","141397","0.0-2.0-13.0","stop_signal","","practice","<div class = shapebox><div class = fixation>+</div></div>","none","500","","","","","","","","",""
"","643","77","1850","0","stim","stop-signal","41","143255","0.0-2.0-14.0","stop_signal","","practice","<div class = shapebox><img class = stim src = /static/experiments/stop_signal/images/pentagon.png></img></div>","77,90","850","77","practice","6","<div class = stopbox><div class = centered-shape id = stop-signal></div><div class = centered-shape id = stop-signal-inner></div></div>","250","go","500","",""
"","-1","-1","500","0","fixation","poldrack-single-stim","42","143768","0.0-2.0-15.0","stop_signal","","practice","<div class = shapebox><div class = fixation>+</div></div>","none","500","","","","","","","","",""
"","537","77","1850","0","stim","stop-signal","43","145627","0.0-2.0-16.0","stop_signal","","practice","<div class = shapebox><img class = stim src = /static/experiments/stop_signal/images/pentagon.png></img></div>","77,90","850","77","practice","7","<div class = stopbox><div class = centered-shape id = stop-signal></div><div class = centered-shape id = stop-signal-inner></div></div>","250","go","500","",""
"","-1","-1","500","0","fixation","poldrack-single-stim","44","146142","0.0-2.0-17.0","stop_signal","","practice","<div class = shapebox><div class = fixation>+</div></div>","none","500","","","","","","","","",""
"","538","90","1850","0","stim","stop-signal","45","148009","0.0-2.0-18.0","stop_signal","","practice","<div class = shapebox><img class = stim src = /static/experiments/stop_signal/images/square.png></img></div>","77,90","850","90","practice","8","<div class = stopbox><div class = centered-shape id = stop-signal></div><div class = centered-shape id = stop-signal-inner></div></div>","250","go","500","",""
"","-1","-1","500","0","fixation","poldrack-single-stim","46","148522","0.0-2.0-19.0","stop_signal","","practice","<div class = shapebox><div class = fixation>+</div></div>","none","500","","","","","","","","",""
"","607","90","1850","0","stim","stop-signal","47","150388","0.0-2.0-20.0","stop_signal","","practice","<div class = shapebox><img class = stim src = /static/experiments/stop_signal/images/hourglass.png></img></div>","77,90","850","90","practice","9","<div class = stopbox><div class = centered-shape id = stop-signal></div><div class = centered-shape id = stop-signal-inner></div></div>","250","go","500","",""
"","-1","-1","500","0","fixation","poldrack-single-stim","48","150900","0.0-2.0-21.0","stop_signal","","practice","<div class = shapebox><div class = fixation>+</div></div>","none","500","","","","","","","","",""
"","589","90","1850","0","stim","stop-signal","49","152751","0.0-2.0-22.0","stop_signal","","practice","<div class = shapebox><img class = stim src = /static/experiments/stop_signal/images/hourglass.png></img></div>","77,90","850","90","practice","10","<div class = stopbox><div class = centered-shape id = stop-signal></div><div class = centered-shape id = stop-signal-inner></div></div>","250","go","500","",""
"","-1","-1","500","0","fixation","poldrack-single-stim","50","153266","0.0-2.0-23.0","stop_signal","","practice","<div class = shapebox><div class = fixation>+</div></div>","none","500","","","","","","","","",""
"","712","77","1850","0","stim","stop-signal","51","155118","0.0-2.0-24.0","stop_signal","","practice","<div class = shapebox><img class = stim src = /static/experiments/stop_signal/images/pentagon.png></img></div>","77,90","850","77","practice","11","<div class = stopbox><div class = centered-shape id = stop-signal></div><div class = centered-shape id = stop-signal-inner></div></div>","250","go","500","",""
"","-1","-1","500","0","fixation","poldrack-single-stim","52","155629","0.0-2.0-25.0","stop_signal","","practice","<div class = shapebox><div class = fixation>+</div></div>","none","500","","","","","","","","",""
"","859","77","1850","0","stim","stop-signal","53","157491","0.0-2.0-26.0","stop_signal","","practice","<div class = shapebox><img class = stim src = /static/experiments/stop_signal/images/tear.png></img></div>","77,90","850","77","practice","12","<div class = stopbox><div class = centered-shape id = stop-signal></div><div class = centered-shape id = stop-signal-inner></div></div>","250","go","500","",""
"","-1","-1","500","0","fixation","poldrack-single-stim","54","158005","0.0-2.0-27.0","stop_signal","","practice","<div class = shapebox><div class = fixation>+</div></div>","none","500","","","","","","","","",""
"","-1","-1","1850","0","stim","stop-signal","55","159870","0.0-2.0-28.0","stop_signal","","practice","<div class = shapebox><img class = stim src = /static/experiments/stop_signal/images/tear.png></img></div>","77,90","850","77","practice","13","<div class = stopbox><div class = centered-shape id = stop-signal></div><div class = centered-shape id = stop-signal-inner></div></div>","250","stop","500","",""
"","-1","-1","500","0","fixation","poldrack-single-stim","56","160383","0.0-2.0-29.0","stop_signal","","practice","<div class = shapebox><div class = fixation>+</div></div>","none","500","","","","","","","","",""
"","-1","-1","1850","0","stim","stop-signal","57","162239","0.0-2.0-30.0","stop_signal","","practice","<div class = shapebox><img class = stim src = /static/experiments/stop_signal/images/tear.png></img></div>","77,90","850","77","practice","14","<div class = stopbox><div class = centered-shape id = stop-signal></div><div class = centered-shape id = stop-signal-inner></div></div>","250","stop","500","",""
"","-1","-1","500","0","fixation","poldrack-single-stim","58","162741","0.0-2.0-31.0","stop_signal","","practice","<div class = shapebox><div class = fixation>+</div></div>","none","500","","","","","","","","",""
"","-1","-1","1850","0","stim","stop-signal","59","164606","0.0-2.0-32.0","stop_signal","","practice","<div class = shapebox><img class = stim src = /static/experiments/stop_signal/images/hourglass.png></img></div>","77,90","850","90","practice","15","<div class = stopbox><div class = centered-shape id = stop-signal></div><div class = centered-shape id = stop-signal-inner></div></div>","250","stop","500","",""
"","-1","-1","500","0","fixation","poldrack-single-stim","60","165121","0.0-2.0-33.0","stop_signal","","practice","<div class = shapebox><div class = fixation>+</div></div>","none","500","","","","","","","","",""
"","-1","-1","1850","0","stim","stop-signal","61","166972","0.0-2.0-34.0","stop_signal","","practice","<div class = shapebox><img class = stim src = /static/experiments/stop_signal/images/pentagon.png></img></div>","77,90","850","77","practice","16","<div class = stopbox><div class = centered-shape id = stop-signal></div><div class = centered-shape id = stop-signal-inner></div></div>","250","stop","500","",""
"","-1","-1","500","0","fixation","poldrack-single-stim","62","167482","0.0-2.0-35.0","stop_signal","","practice","<div class = shapebox><div class = fixation>+</div></div>","none","500","","","","","","","","",""
"","558","90","1850","0","stim","stop-signal","63","169343","0.0-2.0-36.0","stop_signal","","practice","<div class = shapebox><img class = stim src = /static/experiments/stop_signal/images/square.png></img></div>","77,90","850","90","practice","17","<div class = stopbox><div class = centered-shape id = stop-signal></div><div class = centered-shape id = stop-signal-inner></div></div>","250","go","500","",""
"","-1","-1","500","0","fixation","poldrack-single-stim","64","169850","0.0-2.0-37.0","stop_signal","","practice","<div class = shapebox><div class = fixation>+</div></div>","none","500","","","","","","","","",""
"","815","77","1850","0","stim","stop-signal","65","171708","0.0-2.0-38.0","stop_signal","","practice","<div class = shapebox><img class = stim src = /static/experiments/stop_signal/images/hourglass.png></img></div>","77,90","850","90","practice","18","<div class = stopbox><div class = centered-shape id = stop-signal></div><div class = centered-shape id = stop-signal-inner></div></div>","250","go","500","",""
"","-1","-1","500","0","fixation","poldrack-single-stim","66","172221","0.0-2.0-39.0","stop_signal","","practice","<div class = shapebox><div class = fixation>+</div></div>","none","500","","","","","","","","",""
"","-1","-1","1850","0","stim","stop-signal","67","174086","0.0-2.0-40.0","stop_signal","","practice","<div class = shapebox><img class = stim src = /static/experiments/stop_signal/images/tear.png></img></div>","77,90","850","77","practice","19","<div class = stopbox><div class = centered-shape id = stop-signal></div><div class = centered-shape id = stop-signal-inner></div></div>","250","stop","500","",""
"<div class = centerbox><p class = block-text></p><p class = block-text><strong>Average reaction time:  625 ms. Accuracy for non-star trials: 86%</strong></p><p class = block-text>We will try another practice block. </p><p class = block-text><strong>Remember, do not slow your responses to the shape to see if a star will appear before you respond.  Please respond to each shape as quickly and as accurately as possible.</strong></p><p class = block-text>Press <strong>Enter</strong> to continue</p></div>","6250","13","6250","1000","feedback","poldrack-text","68","180338","0.0-2.1-0.1","stop_signal","","practice","","","","","","","","","","","",""
"","-1","-1","500","0","fixation","poldrack-single-stim","69","181862","0.0-2.1-1.1","stop_signal","","practice","<div class = shapebox><div class = fixation>+</div></div>","none","500","","","","","","","","",""
"","532","90","1850","0","stim","stop-signal","70","183728","0.0-2.1-2.1","stop_signal","","practice","<div class = shapebox><img class = stim src = /static/experiments/stop_signal/images/hourglass.png></img></div>","77,90","850","90","practice","20","<div class = stopbox><div class = centered-shape id = stop-signal></div><div class = centered-shape id = stop-signal-inner></div></div>","250","go","500","",""
"","-1","-1","500","0","fixation","poldrack-single-stim","71","184242","0.0-2.1-3.1","stop_signal","","practice","<div class = shapebox><div class = fixation>+</div></div>","none","500","","","","","","","","",""
"","566","77","1850","0","stim","stop-signal","72","186096","0.0-2.1-4.1","stop_signal","","practice","<div class = shapebox><img class = stim src = /static/experiments/stop_signal/images/pentagon.png></img></div>","77,90","850","77","practice","21","<div class = stopbox><div class = centered-shape id = stop-signal></div><div class = centered-shape id = stop-signal-inner></div></div>","250","go","500","",""
"","-1","-1","500","0","fixation","poldrack-single-stim","73","186607","0.0-2.1-5.1","stop_signal","","practice","<div class = shapebox><div class = fixation>+</div></div>","none","500","","","","","","","","",""
"","554","90","1850","0","stim","stop-signal","74","188474","0.0-2.1-6.1","stop_signal","","practice","<div class = shapebox><img class = stim src = /static/experiments/stop_signal/images/hourglass.png></img></div>","77,90","850","90","practice","22","<div class = stopbox><div class = centered-shape id = stop-signal></div><div class = centered-shape id = stop-signal-inner></div></div>","250","go","500","",""
"","-1","-1","500","0","fixation","poldrack-single-stim","75","188988","0.0-2.1-7.1","stop_signal","","practice","<div class = shapebox><div class = fixation>+</div></div>","none","500","","","","","","","","",""
"","860","90","1850","0","stim","stop-signal","76","190845","0.0-2.1-8.1","stop_signal","","practice","<div class = shapebox><img class = stim src = /static/experiments/stop_signal/images/square.png></img></div>","77,90","850","90","practice","23","<div class = stopbox><div class = centered-shape id = stop-signal></div><div class = centered-shape id = stop-signal-inner></div></div>","250","go","500","",""
"","-1","-1","500","0","fixation","poldrack-single-stim","77","191356","0.0-2.1-9.1","stop_signal","","practice","<div class = shapebox><div class = fixation>+</div></div>","none","500","","","","","","","","",""
"","837","77","1850","0","stim","stop-signal","78","193210","0.0-2.1-10.1","stop_signal","","practice","<div class = shapebox><img class = stim src = /static/experiments/stop_signal/images/pentagon.png></img></div>","77,90","850","77","practice","24","<div class = stopbox><div class = centered-shape id = stop-signal></div><div class = centered-shape id = stop-signal-inner></div></div>","250","go","500","",""
"","-1","-1","500","0","fixation","poldrack-single-stim","79","193722","0.0-2.1-11.1","stop_signal","","practice","<div class = shapebox><div class = fixation>+</div></div>","none","500","","","","","","","","",""
"","479","90","1850","0","stim","stop-signal","80","195576","0.0-2.1-12.1","stop_signal","","practice","<div class = shapebox><img class = stim src = /static/experiments/stop_signal/images/square.png></img></div>","77,90","850","90","practice","25","<div class = stopbox><div class = centered-shape id = stop-signal></div><div class = centered-shape id = stop-signal-inner></div></div>","250","go","500","",""
"","-1","-1","500","0","fixation","poldrack-single-stim","81","196089","0.0-2.1-13.1","stop_signal","","practice","<div class = shapebox><div class = fixation>+</div></div>","none","500","","","","","","","","",""
"","-1","-1","1850","0","stim","stop-signal","82","197944","0.0-2.1-14.1","stop_signal","","practice","<div class = shapebox><img class = stim src = /static/experiments/stop_signal/images/square.png></img></div>","77,90","850","90","practice","26","<div class = stopbox><div class = centered-shape id = stop-signal></div><div class = centered-shape id = stop-signal-inner></div></div>","250","stop","500","",""
"","-1","-1","500","0","fixation","poldrack-single-stim","83","198459","0.0-2.1-15.1","stop_signal","","practice","<div class = shapebox><div class = fixation>+</div></div>","none","500","","","","","","","","",""
"","-1","-1","1850","0","stim","stop-signal","84","200323","0.0-2.1-16.1","stop_signal","","practice","<div class = shapebox><img class = stim src = /static/experiments/stop_signal/images/pentagon.png></img></div>","77,90","850","77","practice","27","<div class = stopbox><div class = centered-shape id = stop-signal></div><div class = centered-shape id = stop-signal-inner></div></div>","250","stop","500","",""
"","-1","-1","500","0","fixation","poldrack-single-stim","85","200838","0.0-2.1-17.1","stop_signal","","practice","<div class = shapebox><div class = fixation>+</div></div>","none","500","","","","","","","","",""
"","-1","-1","1850","0","stim","stop-signal","86","202692","0.0-2.1-18.1","stop_signal","","practice","<div class = shapebox><img class = stim src = /static/experiments/stop_signal/images/tear.png></img></div>","77,90","850","77","practice","28","<div class = stopbox><div class = centered-shape id = stop-signal></div><div class = centered-shape id = stop-signal-inner></div></div>","250","stop","500","",""
"","-1","-1","500","0","fixation","poldrack-single-stim","87","203204","0.0-2.1-19.1","stop_signal","","practice","<div class = shapebox><div class = fixation>+</div></div>","none","500","","","","","","","","",""
"","-1","-1","1850","0","stim","stop-signal","88","205059","0.0-2.1-20.1","stop_signal","","practice","<div class = shapebox><img class = stim src = /static/experiments/stop_signal/images/hourglass.png></img></div>","77,90","850","90","practice","29","<div class = stopbox><div class = centered-shape id = stop-signal></div><div class = centered-shape id = stop-signal-inner></div></div>","250","stop","500","",""
"","-1","-1","500","0","fixation","poldrack-single-stim","89","205574","0.0-2.1-21.1","stop_signal","","practice","<div class = shapebox><div class = fixation>+</div></div>","none","500","","","","","","","","",""
"","1075","77","1850","0","stim","stop-signal","90","207428","0.0-2.1-22.1","stop_signal","","practice","<div class = shapebox><img class = stim src = /static/experiments/stop_signal/images/tear.png></img></div>","77,90","850","77","practice","30","<div class = stopbox><div class = centered-shape id = stop-signal></div><div class = centered-shape id = stop-signal-inner></div></div>","250","go","500","",""
"","-1","-1","500","0","fixation","poldrack-single-stim","91","207941","0.0-2.1-23.1","stop_signal","","practice","<div class = shapebox><div class = fixation>+</div></div>","none","500","","","","","","","","",""
"","853","77","1850","0","stim","stop-signal","92","209795","0.0-2.1-24.1","stop_signal","","practice","<div class = shapebox><img class = stim src = /static/experiments/stop_signal/images/hourglass.png></img></div>","77,90","850","90","practice","31","<div class = stopbox><div class = centered-shape id = stop-signal></div><div class = centered-shape id = stop-signal-inner></div></div>","250","go","500","",""
"","-1","-1","500","0","fixation","poldrack-single-stim","93","210309","0.0-2.1-25.1","stop_signal","","practice","<div class = shapebox><div class = fixation>+</div></div>","none","500","","","","","","","","",""
"","501","90","1850","0","stim","stop-signal","94","212163","0.0-2.1-26.1","stop_signal","","practice","<div class = shapebox><img class = stim src = /static/experiments/stop_signal/images/square.png></img></div>","77,90","850","90","practice","32","<div class = stopbox><div class = centered-shape id = stop-signal></div><div class = centered-shape id = stop-signal-inner></div></div>","250","go","500","",""
"","-1","-1","500","0","fixation","poldrack-single-stim","95","212676","0.0-2.1-27.1","stop_signal","","practice","<div class = shapebox><div class = fixation>+</div></div>","none","500","","","","","","","","",""
"","547","90","1850","0","stim","stop-signal","96","214540","0.0-2.1-28.1","stop_signal","","practice","<div class = shapebox><img class = stim src = /static/experiments/stop_signal/images/square.png></img></div>","77,90","850","90","practice","33","<div class = stopbox><div class = centered-shape id = stop-signal></div><div class = centered-shape id = stop-signal-inner></div></div>","250","go","500","",""
"","-1","-1","500","0","fixation","poldrack-single-stim","97","215051","0.0-2.1-29.1","stop_signal","","practice","<div class = shapebox><div class = fixation>+</div></div>","none","500","","","","","","","","",""
"","-1","-1","1850","0","stim","stop-signal","98","216905","0.0-2.1-30.1","stop_signal","","practice","<div class = shapebox><img class = stim src = /static/experiments/stop_signal/images/hourglass.png></img></div>","77,90","850","90","practice","34","<div class = stopbox><div class = centered-shape id = stop-signal></div><div class = centered-shape id = stop-signal-inner></div></div>","250","stop","500","",""
"","-1","-1","500","0","fixation","poldrack-single-stim","99","217417","0.0-2.1-31.1","stop_signal","","practice","<div class = shapebox><div class = fixation>+</div></div>","none","500","","","","","","","","",""
"","543","77","1850","0","stim","stop-signal","100","219283","0.0-2.1-32.1","stop_signal","","practice","<div class = shapebox><img class = stim src = /static/experiments/stop_signal/images/tear.png></img></div>","77,90","850","77","practice","35","<div class = stopbox><div class = centered-shape id = stop-signal></div><div class = centered-shape id = stop-signal-inner></div></div>","250","go","500","",""
"","-1","-1","500","0","fixation","poldrack-single-stim","101","219794","0.0-2.1-33.1","stop_signal","","practice","<div class = shapebox><div class = fixation>+</div></div>","none","500","","","","","","","","",""
"","1222","77","1850","0","stim","stop-signal","102","221647","0.0-2.1-34.1","stop_signal","","practice","<div class = shapebox><img class = stim src = /static/experiments/stop_signal/images/pentagon.png></img></div>","77,90","850","77","practice","36","<div class = stopbox><div class = centered-shape id = stop-signal></div><div class = centered-shape id = stop-signal-inner></div></div>","250","go","500","",""
"","-1","-1","500","0","fixation","poldrack-single-stim","103","222159","0.0-2.1-35.1","stop_signal","","practice","<div class = shapebox><div class = fixation>+</div></div>","none","500","","","","","","","","",""
"","832","77","1850","0","stim","stop-signal","104","224013","0.0-2.1-36.1","stop_signal","","practice","<div class = shapebox><img class = stim src = /static/experiments/stop_signal/images/pentagon.png></img></div>","77,90","850","77","practice","37","<div class = stopbox><div class = centered-shape id = stop-signal></div><div class = centered-shape id = stop-signal-inner></div></div>","250","go","500","",""
"","-1","-1","500","0","fixation","poldrack-single-stim","105","224526","0.0-2.1-37.1","stop_signal","","practice","<div class = shapebox><div class = fixation>+</div></div>","none","500","","","","","","","","",""
"","681","77","1850","0","stim","stop-signal","106","226382","0.0-2.1-38.1","stop_signal","","practice","<div class = shapebox><img class = stim src = /static/experiments/stop_signal/images/tear.png></img></div>","77,90","850","77","practice","38","<div class = stopbox><div class = centered-shape id = stop-signal></div><div class = centered-shape id = stop-signal-inner></div></div>","250","go","500","",""
"","-1","-1","500","0","fixation","poldrack-single-stim","107","226893","0.0-2.1-39.1","stop_signal","","practice","<div class = shapebox><div class = fixation>+</div></div>","none","500","","","","","","","","",""
"","-1","-1","1850","0","stim","stop-signal","108","228747","0.0-2.1-40.1","stop_signal","","practice","<div class = shapebox><img class = stim src = /static/experiments/stop_signal/images/tear.png></img></div>","77,90","850","77","practice","39","<div class = stopbox><div class = centered-shape id = stop-signal></div><div class = centered-shape id = stop-signal-inner></div></div>","250","stop","500","",""
"<div class = centerbox><p class = block-text></p><p class = block-text><strong>Average reaction time:  624 ms. Accuracy for non-star trials: 93%</strong></p><p class = block-text>We will try another practice block. </p><p class = block-text><strong>Remember, do not slow your responses to the shape to see if a star will appear before you respond.  Please respond to each shape as quickly and as accurately as possible.</strong></p><p class = block-text>Press <strong>Enter</strong> to continue</p></div>","3165","13","3165","1000","feedback","poldrack-text","109","231913","0.0-2.2-0.2","stop_signal","","practice","","","","","","","","","","","",""
"","-1","-1","500","0","fixation","poldrack-single-stim","110","233439","0.0-2.2-1.2","stop_signal","","practice","<div class = shapebox><div class = fixation>+</div></div>","none","500","","","","","","","","",""
"","602","90","1850","0","stim","stop-signal","111","235291","0.0-2.2-2.2","stop_signal","","practice","<div class = shapebox><img class = stim src = /static/experiments/stop_signal/images/hourglass.png></img></div>","77,90","850","90","practice","40","<div class = stopbox><div class = centered-shape id = stop-signal></div><div class = centered-shape id = stop-signal-inner></div></div>","250","go","500","",""
"","-1","-1","500","0","fixation","poldrack-single-stim","112","235805","0.0-2.2-3.2","stop_signal","","practice","<div class = shapebox><div class = fixation>+</div></div>","none","500","","","","","","","","",""
"","571","90","1850","0","stim","stop-signal","113","237662","0.0-2.2-4.2","stop_signal","","practice","<div class = shapebox><img class = stim src = /static/experiments/stop_signal/images/square.png></img></div>","77,90","850","90","practice","41","<div class = stopbox><div class = centered-shape id = stop-signal></div><div class = centered-shape id = stop-signal-inner></div></div>","250","go","500","",""
"","-1","-1","500","0","fixation","poldrack-single-stim","114","238175","0.0-2.2-5.2","stop_signal","","practice","<div class = shapebox><div class = fixation>+</div></div>","none","500","","","","","","","","",""
"","1000","90","1850","0","stim","stop-signal","115","240028","0.0-2.2-6.2","stop_signal","","practice","<div class = shapebox><img class = stim src = /static/experiments/stop_signal/images/hourglass.png></img></div>","77,90","850","90","practice","42","<div class = stopbox><div class = centered-shape id = stop-signal></div><div class = centered-shape id = stop-signal-inner></div></div>","250","go","500","",""
"","-1","-1","500","0","fixation","poldrack-single-stim","116","240540","0.0-2.2-7.2","stop_signal","","practice","<div class = shapebox><div class = fixation>+</div></div>","none","500","","","","","","","","",""
"","563","77","1850","0","stim","stop-signal","117","242396","0.0-2.2-8.2","stop_signal","","practice","<div class = shapebox><img class = stim src = /static/experiments/stop_signal/images/pentagon.png></img></div>","77,90","850","77","practice","43","<div class = stopbox><div class = centered-shape id = stop-signal></div><div class = centered-shape id = stop-signal-inner></div></div>","250","go","500","",""
"","-1","-1","500","0","fixation","poldrack-single-stim","118","242909","0.0-2.2-9.2","stop_signal","","practice","<div class = shapebox><div class = fixation>+</div></div>","none","500","","","","","","","","",""
"","556","90","1850","0","stim","stop-signal","119","244761","0.0-2.2-10.2","stop_signal","","practice","<div class = shapebox><img class = stim src = /static/experiments/stop_signal/images/hourglass.png></img></div>","77,90","850","90","practice","44","<div class = stopbox><div class = centered-shape id = stop-signal></div><div class = centered-shape id = stop-signal-inner></div></div>","250","go","500","",""
"","-1","-1","500","0","fixation","poldrack-single-stim","120","245276","0.0-2.2-11.2","stop_signal","","practice","<div class = shapebox><div class = fixation>+</div></div>","none","500","","","","","","","","",""
"","-1","-1","1850","0","stim","stop-signal","121","247132","0.0-2.2-12.2","stop_signal","","practice","<div class = shapebox><img class = stim src = /static/experiments/stop_signal/images/square.png></img></div>","77,90","850","90","practice","45","<div class = stopbox><div class = centered-shape id = stop-signal></div><div class = centered-shape id = stop-signal-inner></div></div>","250","stop","500","",""
"","-1","-1","500","0","fixation","poldrack-single-stim","122","247644","0.0-2.2-13.2","stop_signal","","practice","<div class = shapebox><div class = fixation>+</div></div>","none","500","","","","","","","","",""
"","532","77","1850","0","stim","stop-signal","123","249509","0.0-2.2-14.2","stop_signal","","practice","<div class = shapebox><img class = stim src = /static/experiments/stop_signal/images/pentagon.png></img></div>","77,90","850","77","practice","46","<div class = stopbox><div class = centered-shape id = stop-signal></div><div class = centered-shape id = stop-signal-inner></div></div>","250","go","500","",""
"","-1","-1","500","0","fixation","poldrack-single-stim","124","250023","0.0-2.2-15.2","stop_signal","","practice","<div class = shapebox><div class = fixation>+</div></div>","none","500","","","","","","","","",""
"","-1","-1","1850","0","stim","stop-signal","125","251889","0.0-2.2-16.2","stop_signal","","practice","<div class = shapebox><img class = stim src = /static/experiments/stop_signal/images/pentagon.png></img></div>","77,90","850","77","practice","47","<div class = stopbox><div class = centered-shape id = stop-signal></div><div class = centered-shape id = stop-signal-inner></div></div>","250","stop","500","",""
"","-1","-1","500","0","fixation","poldrack-single-stim","126","252402","0.0-2.2-17.2","stop_signal","","practice","<div class = shapebox><div class = fixation>+</div></div>","none","500","","","","","","","","",""
"","549","90","1850","0","stim","stop-signal","127","254269","0.0-2.2-18.2","stop_signal","","practice","<div class = shapebox><img class = stim src = /static/experiments/stop_signal/images/square.png></img></div>","77,90","850","90","practice","48","<div class = stopbox><div class = centered-shape id = stop-signal></div><div class = centered-shape id = stop-signal-inner></div></div>","250","go","500","",""
"","-1","-1","500","0","fixation","poldrack-single-stim","128","254781","0.0-2.2-19.2","stop_signal","","practice","<div class = shapebox><div class = fixation>+</div></div>","none","500","","","","","","","","",""
"","-1","-1","1850","0","stim","stop-signal","129","256633","0.0-2.2-20.2","stop_signal","","practice","<div class = shapebox><img class = stim src = /static/experiments/stop_signal/images/pentagon.png></img></div>","77,90","850","77","practice","49","<div class = stopbox><div class = centered-shape id = stop-signal></div><div class = centered-shape id = stop-signal-inner></div></div>","250","stop","500","",""
"","-1","-1","500","0","fixation","poldrack-single-stim","130","257149","0.0-2.2-21.2","stop_signal","","practice","<div class = shapebox><div class = fixation>+</div></div>","none","500","","","","","","","","",""
"","588","77","1850","0","stim","stop-signal","131","259015","0.0-2.2-22.2","stop_signal","","practice","<div class = shapebox><img class = stim src = /static/experiments/stop_signal/images/tear.png></img></div>","77,90","850","77","practice","50","<div class = stopbox><div class = centered-shape id = stop-signal></div><div class = centered-shape id = stop-signal-inner></div></div>","250","stop","500","",""
"","-1","-1","500","0","fixation","poldrack-single-stim","132","259528","0.0-2.2-23.2","stop_signal","","practice","<div class = shapebox><div class = fixation>+</div></div>","none","500","","","","","","","","",""
"","-1","-1","1850","0","stim","stop-signal","133","261382","0.0-2.2-24.2","stop_signal","","practice","<div class = shapebox><img class = stim src = /static/experiments/stop_signal/images/hourglass.png></img></div>","77,90","850","90","practice","51","<div class = stopbox><div class = centered-shape id = stop-signal></div><div class = centered-shape id = stop-signal-inner></div></div>","250","go","500","",""
"","-1","-1","500","0","fixation","poldrack-single-stim","134","261893","0.0-2.2-25.2","stop_signal","","practice","<div class = shapebox><div class = fixation>+</div></div>","none","500","","","","","","","","",""
"","835","77","1850","0","stim","stop-signal","135","263747","0.0-2.2-26.2","stop_signal","","practice","<div class = shapebox><img class = stim src = /static/experiments/stop_signal/images/hourglass.png></img></div>","77,90","850","90","practice","52","<div class = stopbox><div class = centered-shape id = stop-signal></div><div class = centered-shape id = stop-signal-inner></div></div>","250","go","500","",""
"","-1","-1","500","0","fixation","poldrack-single-stim","136","264259","0.0-2.2-27.2","stop_signal","","practice","<div class = shapebox><div class = fixation>+</div></div>","none","500","","","","","","","","",""
"","589","77","1850","0","stim","stop-signal","137","266122","0.0-2.2-28.2","stop_signal","","practice","<div class = shapebox><img class = stim src = /static/experiments/stop_signal/images/tear.png></img></div>","77,90","850","77","practice","53","<div class = stopbox><div class = centered-shape id = stop-signal></div><div class = centered-shape id = stop-signal-inner></div></div>","250","go","500","",""
"","-1","-1","500","0","fixation","poldrack-single-stim","138","266639","0.0-2.2-29.2","stop_signal","","practice","<div class = shapebox><div class = fixation>+</div></div>","none","500","","","","","","","","",""
"","-1","-1","1850","0","stim","stop-signal","139","268495","0.0-2.2-30.2","stop_signal","","practice","<div class = shapebox><img class = stim src = /static/experiments/stop_signal/images/tear.png></img></div>","77,90","850","77","practice","54","<div class = stopbox><div class = centered-shape id = stop-signal></div><div class = centered-shape id = stop-signal-inner></div></div>","250","stop","500","",""
"","-1","-1","500","0","fixation","poldrack-single-stim","140","269008","0.0-2.2-31.2","stop_signal","","practice","<div class = shapebox><div class = fixation>+</div></div>","none","500","","","","","","","","",""
"","471","90","1850","0","stim","stop-signal","141","270860","0.0-2.2-32.2","stop_signal","","practice","<div class = shapebox><img class = stim src = /static/experiments/stop_signal/images/square.png></img></div>","77,90","850","90","practice","55","<div class = stopbox><div class = centered-shape id = stop-signal></div><div class = centered-shape id = stop-signal-inner></div></div>","250","go","500","",""
"","-1","-1","500","0","fixation","poldrack-single-stim","142","271373","0.0-2.2-33.2","stop_signal","","practice","<div class = shapebox><div class = fixation>+</div></div>","none","500","","","","","","","","",""
"","474","77","1850","0","stim","stop-signal","143","273238","0.0-2.2-34.2","stop_signal","","practice","<div class = shapebox><img class = stim src = /static/experiments/stop_signal/images/tear.png></img></div>","77,90","850","77","practice","56","<div class = stopbox><div class = centered-shape id = stop-signal></div><div class = centered-shape id = stop-signal-inner></div></div>","250","go","500","",""
"","-1","-1","500","0","fixation","poldrack-single-stim","144","273755","0.0-2.2-35.2","stop_signal","","practice","<div class = shapebox><div class = fixation>+</div></div>","none","500","","","","","","","","",""
"","-1","-1","1850","0","stim","stop-signal","145","275619","0.0-2.2-36.2","stop_signal","","practice","<div class = shapebox><img class = stim src = /static/experiments/stop_signal/images/pentagon.png></img></div>","77,90","850","77","practice","57","<div class = stopbox><div class = centered-shape id = stop-signal></div><div class = centered-shape id = stop-signal-inner></div></div>","250","stop","500","",""
"","-1","-1","500","0","fixation","poldrack-single-stim","146","276133","0.0-2.2-37.2","stop_signal","","practice","<div class = shapebox><div class = fixation>+</div></div>","none","500","","","","","","","","",""
"","507","77","1850","0","stim","stop-signal","147","277996","0.0-2.2-38.2","stop_signal","","practice","<div class = shapebox><img class = stim src = /static/experiments/stop_signal/images/tear.png></img></div>","77,90","850","77","practice","58","<div class = stopbox><div class = centered-shape id = stop-signal></div><div class = centered-shape id = stop-signal-inner></div></div>","250","go","500","",""
"","-1","-1","500","0","fixation","poldrack-single-stim","148","278508","0.0-2.2-39.2","stop_signal","","practice","<div class = shapebox><div class = fixation>+</div></div>","none","500","","","","","","","","",""
"","317","90","1850","0","stim","stop-signal","149","280361","0.0-2.2-40.2","stop_signal","","practice","<div class = shapebox><img class = stim src = /static/experiments/stop_signal/images/square.png></img></div>","77,90","850","90","practice","59","<div class = stopbox><div class = centered-shape id = stop-signal></div><div class = centered-shape id = stop-signal-inner></div></div>","250","go","500","",""
"<div class = centerbox><p class = block-text></p><p class = block-text><strong>Average reaction time:  556 ms. Accuracy for non-star trials: 86%</strong></p><p class = block-text>We will try another practice block. </p><p class = block-text><strong>Remember, do not slow your responses to the shape to see if a star will appear before you respond.  Please respond to each shape as quickly and as accurately as possible.</strong></p><p class = block-text>Press <strong>Enter</strong> to continue</p></div>","2592","13","2592","1000","feedback","poldrack-text","150","282954","0.0-2.3-0.3","stop_signal","","practice","","","","","","","","","","","",""
"","-1","-1","500","0","fixation","poldrack-single-stim","151","284484","0.0-2.3-1.3","stop_signal","","practice","<div class = shapebox><div class = fixation>+</div></div>","none","500","","","","","","","","",""
"","765","77","1850","0","stim","stop-signal","152","286337","0.0-2.3-2.3","stop_signal","","practice","<div class = shapebox><img class = stim src = /static/experiments/stop_signal/images/pentagon.png></img></div>","77,90","850","77","practice","60","<div class = stopbox><div class = centered-shape id = stop-signal></div><div class = centered-shape id = stop-signal-inner></div></div>","250","go","500","",""
"","-1","-1","500","0","fixation","poldrack-single-stim","153","286851","0.0-2.3-3.3","stop_signal","","practice","<div class = shapebox><div class = fixation>+</div></div>","none","500","","","","","","","","",""
"","-1","-1","1850","0","stim","stop-signal","154","288702","0.0-2.3-4.3","stop_signal","","practice","<div class = shapebox><img class = stim src = /static/experiments/stop_signal/images/square.png></img></div>","77,90","850","90","practice","61","<div class = stopbox><div class = centered-shape id = stop-signal></div><div class = centered-shape id = stop-signal-inner></div></div>","250","stop","500","",""
"","-1","-1","500","0","fixation","poldrack-single-stim","155","289215","0.0-2.3-5.3","stop_signal","","practice","<div class = shapebox><div class = fixation>+</div></div>","none","500","","","","","","","","",""
"","-1","-1","1850","0","stim","stop-signal","156","291079","0.0-2.3-6.3","stop_signal","","practice","<div class = shapebox><img class = stim src = /static/experiments/stop_signal/images/tear.png></img></div>","77,90","850","77","practice","62","<div class = stopbox><div class = centered-shape id = stop-signal></div><div class = centered-shape id = stop-signal-inner></div></div>","250","stop","500","",""
"","-1","-1","500","0","fixation","poldrack-single-stim","157","291595","0.0-2.3-7.3","stop_signal","","practice","<div class = shapebox><div class = fixation>+</div></div>","none","500","","","","","","","","",""
"","486","77","1850","0","stim","stop-signal","158","293457","0.0-2.3-8.3","stop_signal","","practice","<div class = shapebox><img class = stim src = /static/experiments/stop_signal/images/pentagon.png></img></div>","77,90","850","77","practice","63","<div class = stopbox><div class = centered-shape id = stop-signal></div><div class = centered-shape id = stop-signal-inner></div></div>","250","go","500","",""
"","-1","-1","500","0","fixation","poldrack-single-stim","159","293969","0.0-2.3-9.3","stop_signal","","practice","<div class = shapebox><div class = fixation>+</div></div>","none","500","","","","","","","","",""
"","441","77","1850","0","stim","stop-signal","160","295831","0.0-2.3-10.3","stop_signal","","practice","<div class = shapebox><img class = stim src = /static/experiments/stop_signal/images/pentagon.png></img></div>","77,90","850","77","practice","64","<div class = stopbox><div class = centered-shape id = stop-signal></div><div class = centered-shape id = stop-signal-inner></div></div>","250","go","500","",""
"","-1","-1","500","0","fixation","poldrack-single-stim","161","296345","0.0-2.3-11.3","stop_signal","","practice","<div class = shapebox><div class = fixation>+</div></div>","none","500","","","","","","","","",""
"","392","90","1850","0","stim","stop-signal","162","298199","0.0-2.3-12.3","stop_signal","","practice","<div class = shapebox><img class = stim src = /static/experiments/stop_signal/images/square.png></img></div>","77,90","850","90","practice","65","<div class = stopbox><div class = centered-shape id = stop-signal></div><div class = centered-shape id = stop-signal-inner></div></div>","250","go","500","",""
"","-1","-1","500","0","fixation","poldrack-single-stim","163","298708","0.0-2.3-13.3","stop_signal","","practice","<div class = shapebox><div class = fixation>+</div></div>","none","500","","","","","","","","",""
"","-1","-1","1850","0","stim","stop-signal","164","300573","0.0-2.3-14.3","stop_signal","","practice","<div class = shapebox><img class = stim src = /static/experiments/stop_signal/images/hourglass.png></img></div>","77,90","850","90","practice","66","<div class = stopbox><div class = centered-shape id = stop-signal></div><div class = centered-shape id = stop-signal-inner></div></div>","250","stop","500","",""
"","-1","-1","500","0","fixation","poldrack-single-stim","165","301088","0.0-2.3-15.3","stop_signal","","practice","<div class = shapebox><div class = fixation>+</div></div>","none","500","","","","","","","","",""
"","-1","-1","1850","0","stim","stop-signal","166","302943","0.0-2.3-16.3","stop_signal","","practice","<div class = shapebox><img class = stim src = /static/experiments/stop_signal/images/square.png></img></div>","77,90","850","90","practice","67","<div class = stopbox><div class = centered-shape id = stop-signal></div><div class = centered-shape id = stop-signal-inner></div></div>","250","stop","500","",""
"","-1","-1","500","0","fixation","poldrack-single-stim","167","303458","0.0-2.3-17.3","stop_signal","","practice","<div class = shapebox><div class = fixation>+</div></div>","none","500","","","","","","","","",""
"","734","90","1850","0","stim","stop-signal","168","305325","0.0-2.3-18.3","stop_signal","","practice","<div class = shapebox><img class = stim src = /static/experiments/stop_signal/images/square.png></img></div>","77,90","850","90","practice","68","<div class = stopbox><div class = centered-shape id = stop-signal></div><div class = centered-shape id = stop-signal-inner></div></div>","250","go","500","",""
"","-1","-1","500","0","fixation","poldrack-single-stim","169","305835","0.0-2.3-19.3","stop_signal","","practice","<div class = shapebox><div class = fixation>+</div></div>","none","500","","","","","","","","",""
"","566","77","1850","0","stim","stop-signal","170","307688","0.0-2.3-20.3","stop_signal","","practice","<div class = shapebox><img class = stim src = /static/experiments/stop_signal/images/pentagon.png></img></div>","77,90","850","77","practice","69","<div class = stopbox><div class = centered-shape id = stop-signal></div><div class = centered-shape id = stop-signal-inner></div></div>","250","go","500","",""
"","-1","-1","500","0","fixation","poldrack-single-stim","171","308202","0.0-2.3-21.3","stop_signal","","practice","<div class = shapebox><div class = fixation>+</div></div>","none","500","","","","","","","","",""
"","558","77","1850","0","stim","stop-signal","172","310065","0.0-2.3-22.3","stop_signal","","practice","<div class = shapebox><img class = stim src = /static/experiments/stop_signal/images/tear.png></img></div>","77,90","850","77","practice","70","<div class = stopbox><div class = centered-shape id = stop-signal></div><div class = centered-shape id = stop-signal-inner></div></div>","250","go","500","",""
"","-1","-1","500","0","fixation","poldrack-single-stim","173","310580","0.0-2.3-23.3","stop_signal","","practice","<div class = shapebox><div class = fixation>+</div></div>","none","500","","","","","","","","",""
"","-1","-1","1850","0","stim","stop-signal","174","312443","0.0-2.3-24.3","stop_signal","","practice","<div class = shapebox><img class = stim src = /static/experiments/stop_signal/images/hourglass.png></img></div>","77,90","850","90","practice","71","<div class = stopbox><div class = centered-shape id = stop-signal></div><div class = centered-shape id = stop-signal-inner></div></div>","250","stop","500","",""
"","-1","-1","500","0","fixation","poldrack-single-stim","175","312957","0.0-2.3-25.3","stop_signal","","practice","<div class = shapebox><div class = fixation>+</div></div>","none","500","","","","","","","","",""
"","564","77","1850","0","stim","stop-signal","176","314809","0.0-2.3-26.3","stop_signal","","practice","<div class = shapebox><img class = stim src = /static/experiments/stop_signal/images/tear.png></img></div>","77,90","850","77","practice","72","<div class = stopbox><div class = centered-shape id = stop-signal></div><div class = centered-shape id = stop-signal-inner></div></div>","250","go","500","",""
"","-1","-1","500","0","fixation","poldrack-single-stim","177","315324","0.0-2.3-27.3","stop_signal","","practice","<div class = shapebox><div class = fixation>+</div></div>","none","500","","","","","","","","",""
"","478","90","1850","0","stim","stop-signal","178","317176","0.0-2.3-28.3","stop_signal","","practice","<div class = shapebox><img class = stim src = /static/experiments/stop_signal/images/square.png></img></div>","77,90","850","90","practice","73","<div class = stopbox><div class = centered-shape id = stop-signal></div><div class = centered-shape id = stop-signal-inner></div></div>","250","go","500","",""
"","-1","-1","500","0","fixation","poldrack-single-stim","179","317691","0.0-2.3-29.3","stop_signal","","practice","<div class = shapebox><div class = fixation>+</div></div>","none","500","","","","","","","","",""
"","975","90","1850","0","stim","stop-signal","180","319553","0.0-2.3-30.3","stop_signal","","practice","<div class = shapebox><img class = stim src = /static/experiments/stop_signal/images/hourglass.png></img></div>","77,90","850","90","practice","74","<div class = stopbox><div class = centered-shape id = stop-signal></div><div class = centered-shape id = stop-signal-inner></div></div>","250","go","500","",""
"","-1","-1","500","0","fixation","poldrack-single-stim","181","320066","0.0-2.3-31.3","stop_signal","","practice","<div class = shapebox><div class = fixation>+</div></div>","none","500","","","","","","","","",""
"","614","90","1850","0","stim","stop-signal","182","321931","0.0-2.3-32.3","stop_signal","","practice","<div class = shapebox><img class = stim src = /static/experiments/stop_signal/images/hourglass.png></img></div>","77,90","850","90","practice","75","<div class = stopbox><div class = centered-shape id = stop-signal></div><div class = centered-shape id = stop-signal-inner></div></div>","250","go","500","",""
"","-1","-1","500","0","fixation","poldrack-single-stim","183","322441","0.0-2.3-33.3","stop_signal","","practice","<div class = shapebox><div class = fixation>+</div></div>","none","500","","","","","","","","",""
"","607","77","1850","0","stim","stop-signal","184","324305","0.0-2.3-34.3","stop_signal","","practice","<div class = shapebox><img class = stim src = /static/experiments/stop_signal/images/pentagon.png></img></div>","77,90","850","77","practice","76","<div class = stopbox><div class = centered-shape id = stop-signal></div><div class = centered-shape id = stop-signal-inner></div></div>","250","go","500","",""
"","-1","-1","500","0","fixation","poldrack-single-stim","185","324819","0.0-2.3-35.3","stop_signal","","practice","<div class = shapebox><div class = fixation>+</div></div>","none","500","","","","","","","","",""
"","518","77","1850","0","stim","stop-signal","186","326685","0.0-2.3-36.3","stop_signal","","practice","<div class = shapebox><img class = stim src = /static/experiments/stop_signal/images/tear.png></img></div>","77,90","850","77","practice","77","<div class = stopbox><div class = centered-shape id = stop-signal></div><div class = centered-shape id = stop-signal-inner></div></div>","250","go","500","",""
"","-1","-1","500","0","fixation","poldrack-single-stim","187","327199","0.0-2.3-37.3","stop_signal","","practice","<div class = shapebox><div class = fixation>+</div></div>","none","500","","","","","","","","",""
"","-1","-1","1850","0","stim","stop-signal","188","329052","0.0-2.3-38.3","stop_signal","","practice","<div class = shapebox><img class = stim src = /static/experiments/stop_signal/images/hourglass.png></img></div>","77,90","850","90","practice","78","<div class = stopbox><div class = centered-shape id = stop-signal></div><div class = centered-shape id = stop-signal-inner></div></div>","250","stop","500","",""
"","-1","-1","500","0","fixation","poldrack-single-stim","189","329567","0.0-2.3-39.3","stop_signal","","practice","<div class = shapebox><div class = fixation>+</div></div>","none","500","","","","","","","","",""
"","529","77","1850","0","stim","stop-signal","190","331431","0.0-2.3-40.3","stop_signal","","practice","<div class = shapebox><img class = stim src = /static/experiments/stop_signal/images/tear.png></img></div>","77,90","850","77","practice","79","<div class = stopbox><div class = centered-shape id = stop-signal></div><div class = centered-shape id = stop-signal-inner></div></div>","250","go","500","",""
"<div class = centerbox><p class = block-text></p><p class = block-text><strong>Average reaction time:  561 ms. Accuracy for non-star trials: 100%</strong></p><p class = block-text>We will try another practice block. </p><p class = block-text><strong>Remember, do not slow your responses to the shape to see if a star will appear before you respond.  Please respond to each shape as quickly and as accurately as possible.</strong></p><p class = block-text>Press <strong>Enter</strong> to continue</p></div>","7161","13","7161","1000","feedback","poldrack-text","191","338593","0.0-2.4-0.4","stop_signal","","practice","","","","","","","","","","","",""
"","-1","-1","500","0","fixation","poldrack-single-stim","192","340108","0.0-2.4-1.4","stop_signal","","practice","<div class = shapebox><div class = fixation>+</div></div>","none","500","","","","","","","","",""
"","-1","-1","1850","0","stim","stop-signal","193","341961","0.0-2.4-2.4","stop_signal","","practice","<div class = shapebox><img class = stim src = /static/experiments/stop_signal/images/square.png></img></div>","77,90","850","90","practice","80","<div class = stopbox><div class = centered-shape id = stop-signal></div><div class = centered-shape id = stop-signal-inner></div></div>","250","stop","500","",""
"","-1","-1","500","0","fixation","poldrack-single-stim","194","342473","0.0-2.4-3.4","stop_signal","","practice","<div class = shapebox><div class = fixation>+</div></div>","none","500","","","","","","","","",""
"","1088","77","1850","0","stim","stop-signal","195","344327","0.0-2.4-4.4","stop_signal","","practice","<div class = shapebox><img class = stim src = /static/experiments/stop_signal/images/pentagon.png></img></div>","77,90","850","77","practice","81","<div class = stopbox><div class = centered-shape id = stop-signal></div><div class = centered-shape id = stop-signal-inner></div></div>","250","go","500","",""
"","-1","-1","500","0","fixation","poldrack-single-stim","196","344842","0.0-2.4-5.4","stop_signal","","practice","<div class = shapebox><div class = fixation>+</div></div>","none","500","","","","","","","","",""
"","559","90","1850","0","stim","stop-signal","197","346707","0.0-2.4-6.4","stop_signal","","practice","<div class = shapebox><img class = stim src = /static/experiments/stop_signal/images/hourglass.png></img></div>","77,90","850","90","practice","82","<div class = stopbox><div class = centered-shape id = stop-signal></div><div class = centered-shape id = stop-signal-inner></div></div>","250","go","500","",""
"","-1","-1","500","0","fixation","poldrack-single-stim","198","347222","0.0-2.4-7.4","stop_signal","","practice","<div class = shapebox><div class = fixation>+</div></div>","none","500","","","","","","","","",""
"","-1","-1","1850","0","stim","stop-signal","199","349089","0.0-2.4-8.4","stop_signal","","practice","<div class = shapebox><img class = stim src = /static/experiments/stop_signal/images/square.png></img></div>","77,90","850","90","practice","83","<div class = stopbox><div class = centered-shape id = stop-signal></div><div class = centered-shape id = stop-signal-inner></div></div>","250","stop","500","",""
"","-1","-1","500","0","fixation","poldrack-single-stim","200","349600","0.0-2.4-9.4","stop_signal","","practice","<div class = shapebox><div class = fixation>+</div></div>","none","500","","","","","","","","",""
"","536","77","1850","0","stim","stop-signal","201","351454","0.0-2.4-10.4","stop_signal","","practice","<div class = shapebox><img class = stim src = /static/experiments/stop_signal/images/pentagon.png></img></div>","77,90","850","77","practice","84","<div class = stopbox><div class = centered-shape id = stop-signal></div><div class = centered-shape id = stop-signal-inner></div></div>","250","go","500","",""
"","-1","-1","500","0","fixation","poldrack-single-stim","202","351969","0.0-2.4-11.4","stop_signal","","practice","<div class = shapebox><div class = fixation>+</div></div>","none","500","","","","","","","","",""
"","287","90","1850","0","stim","stop-signal","203","353835","0.0-2.4-12.4","stop_signal","","practice","<div class = shapebox><img class = stim src = /static/experiments/stop_signal/images/tear.png></img></div>","77,90","850","77","practice","85","<div class = stopbox><div class = centered-shape id = stop-signal></div><div class = centered-shape id = stop-signal-inner></div></div>","250","stop","500","",""
"","-1","-1","500","0","fixation","poldrack-single-stim","204","354338","0.0-2.4-13.4","stop_signal","","practice","<div class = shapebox><div class = fixation>+</div></div>","none","500","","","","","","","","",""
"","447","90","1850","0","stim","stop-signal","205","356201","0.0-2.4-14.4","stop_signal","","practice","<div class = shapebox><img class = stim src = /static/experiments/stop_signal/images/hourglass.png></img></div>","77,90","850","90","practice","86","<div class = stopbox><div class = centered-shape id = stop-signal></div><div class = centered-shape id = stop-signal-inner></div></div>","250","go","500","",""
"","-1","-1","500","0","fixation","poldrack-single-stim","206","356712","0.0-2.4-15.4","stop_signal","","practice","<div class = shapebox><div class = fixation>+</div></div>","none","500","","","","","","","","",""
"","376","77","1850","0","stim","stop-signal","207","358577","0.0-2.4-16.4","stop_signal","","practice","<div class = shapebox><img class = stim src = /static/experiments/stop_signal/images/square.png></img></div>","77,90","850","90","practice","87","<div class = stopbox><div class = centered-shape id = stop-signal></div><div class = centered-shape id = stop-signal-inner></div></div>","250","stop","500","",""
"","-1","-1","500","0","fixation","poldrack-single-stim","208","359090","0.0-2.4-17.4","stop_signal","","practice","<div class = shapebox><div class = fixation>+</div></div>","none","500","","","","","","","","",""
"","559","77","1850","0","stim","stop-signal","209","360946","0.0-2.4-18.4","stop_signal","","practice","<div class = shapebox><img class = stim src = /static/experiments/stop_signal/images/tear.png></img></div>","77,90","850","77","practice","88","<div class = stopbox><div class = centered-shape id = stop-signal></div><div class = centered-shape id = stop-signal-inner></div></div>","250","go","500","",""
"","-1","-1","500","0","fixation","poldrack-single-stim","210","361460","0.0-2.4-19.4","stop_signal","","practice","<div class = shapebox><div class = fixation>+</div></div>","none","500","","","","","","","","",""
"","531","90","1850","0","stim","stop-signal","211","363321","0.0-2.4-20.4","stop_signal","","practice","<div class = shapebox><img class = stim src = /static/experiments/stop_signal/images/hourglass.png></img></div>","77,90","850","90","practice","89","<div class = stopbox><div class = centered-shape id = stop-signal></div><div class = centered-shape id = stop-signal-inner></div></div>","250","go","500","",""
"","-1","-1","500","0","fixation","poldrack-single-stim","212","363835","0.0-2.4-21.4","stop_signal","","practice","<div class = shapebox><div class = fixation>+</div></div>","none","500","","","","","","","","",""
"","-1","-1","1850","0","stim","stop-signal","213","365701","0.0-2.4-22.4","stop_signal","","practice","<div class = shapebox><img class = stim src = /static/experiments/stop_signal/images/square.png></img></div>","77,90","850","90","practice","90","<div class = stopbox><div class = centered-shape id = stop-signal></div><div class = centered-shape id = stop-signal-inner></div></div>","250","stop","500","",""
"","-1","-1","500","0","fixation","poldrack-single-stim","214","366212","0.0-2.4-23.4","stop_signal","","practice","<div class = shapebox><div class = fixation>+</div></div>","none","500","","","","","","","","",""
"","404","77","1850","0","stim","stop-signal","215","368076","0.0-2.4-24.4","stop_signal","","practice","<div class = shapebox><img class = stim src = /static/experiments/stop_signal/images/pentagon.png></img></div>","77,90","850","77","practice","91","<div class = stopbox><div class = centered-shape id = stop-signal></div><div class = centered-shape id = stop-signal-inner></div></div>","250","stop","500","",""
"","-1","-1","500","0","fixation","poldrack-single-stim","216","368591","0.0-2.4-25.4","stop_signal","","practice","<div class = shapebox><div class = fixation>+</div></div>","none","500","","","","","","","","",""
"","362","90","1850","0","stim","stop-signal","217","370446","0.0-2.4-26.4","stop_signal","","practice","<div class = shapebox><img class = stim src = /static/experiments/stop_signal/images/pentagon.png></img></div>","77,90","850","77","practice","92","<div class = stopbox><div class = centered-shape id = stop-signal></div><div class = centered-shape id = stop-signal-inner></div></div>","250","go","500","",""
"","-1","-1","500","0","fixation","poldrack-single-stim","218","370960","0.0-2.4-27.4","stop_signal","","practice","<div class = shapebox><div class = fixation>+</div></div>","none","500","","","","","","","","",""
"","672","90","1850","0","stim","stop-signal","219","372815","0.0-2.4-28.4","stop_signal","","practice","<div class = shapebox><img class = stim src = /static/experiments/stop_signal/images/hourglass.png></img></div>","77,90","850","90","practice","93","<div class = stopbox><div class = centered-shape id = stop-signal></div><div class = centered-shape id = stop-signal-inner></div></div>","250","go","500","",""
"","-1","-1","500","0","fixation","poldrack-single-stim","220","373329","0.0-2.4-29.4","stop_signal","","practice","<div class = shapebox><div class = fixation>+</div></div>","none","500","","","","","","","","",""
"","679","77","1850","0","stim","stop-signal","221","375184","0.0-2.4-30.4","stop_signal","","practice","<div class = shapebox><img class = stim src = /static/experiments/stop_signal/images/tear.png></img></div>","77,90","850","77","practice","94","<div class = stopbox><div class = centered-shape id = stop-signal></div><div class = centered-shape id = stop-signal-inner></div></div>","250","go","500","",""
"","-1","-1","500","0","fixation","poldrack-single-stim","222","375697","0.0-2.4-31.4","stop_signal","","practice","<div class = shapebox><div class = fixation>+</div></div>","none","500","","","","","","","","",""
"","344","90","1850","0","stim","stop-signal","223","377560","0.0-2.4-32.4","stop_signal","","practice","<div class = shapebox><img class = stim src = /static/experiments/stop_signal/images/square.png></img></div>","77,90","850","90","practice","95","<div class = stopbox><div class = centered-shape id = stop-signal></div><div class = centered-shape id = stop-signal-inner></div></div>","250","go","500","",""
"","-1","-1","500","0","fixation","poldrack-single-stim","224","378076","0.0-2.4-33.4","stop_signal","","practice","<div class = shapebox><div class = fixation>+</div></div>","none","500","","","","","","","","",""
"","477","77","1850","0","stim","stop-signal","225","379941","0.0-2.4-34.4","stop_signal","","practice","<div class = shapebox><img class = stim src = /static/experiments/stop_signal/images/pentagon.png></img></div>","77,90","850","77","practice","96","<div class = stopbox><div class = centered-shape id = stop-signal></div><div class = centered-shape id = stop-signal-inner></div></div>","250","go","500","",""
"","-1","-1","500","0","fixation","poldrack-single-stim","226","380453","0.0-2.4-35.4","stop_signal","","practice","<div class = shapebox><div class = fixation>+</div></div>","none","500","","","","","","","","",""
"","403","90","1850","0","stim","stop-signal","227","382313","0.0-2.4-36.4","stop_signal","","practice","<div class = shapebox><img class = stim src = /static/experiments/stop_signal/images/tear.png></img></div>","77,90","850","77","practice","97","<div class = stopbox><div class = centered-shape id = stop-signal></div><div class = centered-shape id = stop-signal-inner></div></div>","250","go","500","",""
"","-1","-1","500","0","fixation","poldrack-single-stim","228","382828","0.0-2.4-37.4","stop_signal","","practice","<div class = shapebox><div class = fixation>+</div></div>","none","500","","","","","","","","",""
"","596","90","1850","0","stim","stop-signal","229","384680","0.0-2.4-38.4","stop_signal","","practice","<div class = shapebox><img class = stim src = /static/experiments/stop_signal/images/hourglass.png></img></div>","77,90","850","90","practice","98","<div class = stopbox><div class = centered-shape id = stop-signal></div><div class = centered-shape id = stop-signal-inner></div></div>","250","go","500","",""
"","-1","-1","500","0","fixation","poldrack-single-stim","230","385192","0.0-2.4-39.4","stop_signal","","practice","<div class = shapebox><div class = fixation>+</div></div>","none","500","","","","","","","","",""
"","552","77","1850","0","stim","stop-signal","231","387057","0.0-2.4-40.4","stop_signal","","practice","<div class = shapebox><img class = stim src = /static/experiments/stop_signal/images/tear.png></img></div>","77,90","850","77","practice","99","<div class = stopbox><div class = centered-shape id = stop-signal></div><div class = centered-shape id = stop-signal-inner></div></div>","250","go","500","",""
"<div class = centerbox><p class = block-text></p><p class = block-text><strong>Average reaction time:  544 ms. Accuracy for non-star trials: 86%</strong></p><p class = block-text>Done with practice. We will now begin the 12 test blocks. There will be a break after each block. Press <strong>enter</strong> to continue.</p></div>","6367","13","6367","1000","feedback","poldrack-text","232","393425","0.0-3.0","stop_signal","","practice","","","","","","","","","","","",""
"","-1","-1","500","0","fixation","poldrack-single-stim","233","394940","0.0-4.0","stop_signal","","test","<div class = centerbox><div class = fixation>+</div></div>","none","500","","","","","","","","",""
"","1220","90","1850","0","stim","stop-signal","234","396793","0.0-5.0","stop_signal","","test","<div class = shapebox><img class = stim src = /static/experiments/stop_signal/images/hourglass.png></img></div>","77,90","850","90","low","0","<div class = stopbox><div class = centered-shape id = stop-signal></div><div class = centered-shape id = stop-signal-inner></div></div>","250","go","500","",""
"","-1","-1","500","0","fixation","poldrack-single-stim","235","397305","0.0-6.0","stop_signal","","test","<div class = centerbox><div class = fixation>+</div></div>","none","500","","","","","","","","",""
"","664","77","1850","0","stim","stop-signal","236","399156","0.0-7.0","stop_signal","","test","<div class = shapebox><img class = stim src = /static/experiments/stop_signal/images/pentagon.png></img></div>","77,90","850","77","low","1","<div class = stopbox><div class = centered-shape id = stop-signal></div><div class = centered-shape id = stop-signal-inner></div></div>","250","go","500","",""
"","-1","-1","500","0","fixation","poldrack-single-stim","237","399671","0.0-8.0","stop_signal","","test","<div class = centerbox><div class = fixation>+</div></div>","none","500","","","","","","","","",""
"","570","77","1850","0","stim","stop-signal","238","401524","0.0-9.0","stop_signal","","test","<div class = shapebox><img class = stim src = /static/experiments/stop_signal/images/pentagon.png></img></div>","77,90","850","77","low","2","<div class = stopbox><div class = centered-shape id = stop-signal></div><div class = centered-shape id = stop-signal-inner></div></div>","250","go","500","",""
"","-1","-1","500","0","fixation","poldrack-single-stim","239","402039","0.0-10.0","stop_signal","","test","<div class = centerbox><div class = fixation>+</div></div>","none","500","","","","","","","","",""
"","562","90","1850","0","stim","stop-signal","240","403896","0.0-11.0","stop_signal","","test","<div class = shapebox><img class = stim src = /static/experiments/stop_signal/images/square.png></img></div>","77,90","850","90","low","3","<div class = stopbox><div class = centered-shape id = stop-signal></div><div class = centered-shape id = stop-signal-inner></div></div>","250","go","500","",""
"","-1","-1","500","0","fixation","poldrack-single-stim","241","404411","0.0-12.0","stop_signal","","test","<div class = centerbox><div class = fixation>+</div></div>","none","500","","","","","","","","",""
"","-1","-1","1850","0","stim","stop-signal","242","406277","0.0-13.0","stop_signal","","test","<div class = shapebox><img class = stim src = /static/experiments/stop_signal/images/square.png></img></div>","77,90","850","90","low","4","<div class = stopbox><div class = centered-shape id = stop-signal></div><div class = centered-shape id = stop-signal-inner></div></div>","250","stop","500","",""
"","-1","-1","500","0","fixation","poldrack-single-stim","243","406790","0.0-14.0","stop_signal","","test","<div class = centerbox><div class = fixation>+</div></div>","none","500","","","","","","","","",""
"","770","90","1850","0","stim","stop-signal","244","408642","0.0-15.0","stop_signal","","test","<div class = shapebox><img class = stim src = /static/experiments/stop_signal/images/square.png></img></div>","77,90","850","90","low","5","<div class = stopbox><div class = centered-shape id = stop-signal></div><div class = centered-shape id = stop-signal-inner></div></div>","300","go","500","",""
"","-1","-1","500","0","fixation","poldrack-single-stim","245","409153","0.0-16.0","stop_signal","","test","<div class = centerbox><div class = fixation>+</div></div>","none","500","","","","","","","","",""
"","-1","-1","1850","0","stim","stop-signal","246","411013","0.0-17.0","stop_signal","","test","<div class = shapebox><img class = stim src = /static/experiments/stop_signal/images/hourglass.png></img></div>","77,90","850","90","low","6","<div class = stopbox><div class = centered-shape id = stop-signal></div><div class = centered-shape id = stop-signal-inner></div></div>","300","stop","500","",""
"","-1","-1","500","0","fixation","poldrack-single-stim","247","411527","0.0-18.0","stop_signal","","test","<div class = centerbox><div class = fixation>+</div></div>","none","500","","","","","","","","",""
"","617","90","1850","0","stim","stop-signal","248","413390","0.0-19.0","stop_signal","","test","<div class = shapebox><img class = stim src = /static/experiments/stop_signal/images/square.png></img></div>","77,90","850","90","low","7","<div class = stopbox><div class = centered-shape id = stop-signal></div><div class = centered-shape id = stop-signal-inner></div></div>","350","go","500","",""
"","-1","-1","500","0","fixation","poldrack-single-stim","249","413904","0.0-20.0","stop_signal","","test","<div class = centerbox><div class = fixation>+</div></div>","none","500","","","","","","","","",""
"","640","77","1850","0","stim","stop-signal","250","415757","0.0-21.0","stop_signal","","test","<div class = shapebox><img class = stim src = /static/experiments/stop_signal/images/tear.png></img></div>","77,90","850","77","low","8","<div class = stopbox><div class = centered-shape id = stop-signal></div><div class = centered-shape id = stop-signal-inner></div></div>","350","go","500","",""
"","-1","-1","500","0","fixation","poldrack-single-stim","251","416273","0.0-22.0","stop_signal","","test","<div class = centerbox><div class = fixation>+</div></div>","none","500","","","","","","","","",""
"","544","77","1850","0","stim","stop-signal","252","418126","0.0-23.0","stop_signal","","test","<div class = shapebox><img class = stim src = /static/experiments/stop_signal/images/tear.png></img></div>","77,90","850","77","low","9","<div class = stopbox><div class = centered-shape id = stop-signal></div><div class = centered-shape id = stop-signal-inner></div></div>","350","go","500","",""
"","-1","-1","500","0","fixation","poldrack-single-stim","253","418640","0.0-24.0","stop_signal","","test","<div class = centerbox><div class = fixation>+</div></div>","none","500","","","","","","","","",""
"","560","90","1850","0","stim","stop-signal","254","420494","0.0-25.0","stop_signal","","test","<div class = shapebox><img class = stim src = /static/experiments/stop_signal/images/hourglass.png></img></div>","77,90","850","90","low","10","<div class = stopbox><div class = centered-shape id = stop-signal></div><div class = centered-shape id = stop-signal-inner></div></div>","350","go","500","",""
"","-1","-1","500","0","fixation","poldrack-single-stim","255","421008","0.0-26.0","stop_signal","","test","<div class = centerbox><div class = fixation>+</div></div>","none","500","","","","","","","","",""
"","681","77","1850","0","stim","stop-signal","256","422859","0.0-27.0","stop_signal","","test","<div class = shapebox><img class = stim src = /static/experiments/stop_signal/images/pentagon.png></img></div>","77,90","850","77","low","11","<div class = stopbox><div class = centered-shape id = stop-signal></div><div class = centered-shape id = stop-signal-inner></div></div>","350","go","500","",""
"","-1","-1","500","0","fixation","poldrack-single-stim","257","423373","0.0-28.0","stop_signal","","test","<div class = centerbox><div class = fixation>+</div></div>","none","500","","","","","","","","",""
"","530","90","1850","0","stim","stop-signal","258","425238","0.0-29.0","stop_signal","","test","<div class = shapebox><img class = stim src = /static/experiments/stop_signal/images/square.png></img></div>","77,90","850","90","low","12","<div class = stopbox><div class = centered-shape id = stop-signal></div><div class = centered-shape id = stop-signal-inner></div></div>","350","go","500","",""
"","-1","-1","500","0","fixation","poldrack-single-stim","259","425753","0.0-30.0","stop_signal","","test","<div class = centerbox><div class = fixation>+</div></div>","none","500","","","","","","","","",""
"","631","90","1850","0","stim","stop-signal","260","427605","0.0-31.0","stop_signal","","test","<div class = shapebox><img class = stim src = /static/experiments/stop_signal/images/hourglass.png></img></div>","77,90","850","90","low","13","<div class = stopbox><div class = centered-shape id = stop-signal></div><div class = centered-shape id = stop-signal-inner></div></div>","350","go","500","",""
"","-1","-1","500","0","fixation","poldrack-single-stim","261","428121","0.0-32.0","stop_signal","","test","<div class = centerbox><div class = fixation>+</div></div>","none","500","","","","","","","","",""
"","527","90","1850","0","stim","stop-signal","262","429982","0.0-33.0","stop_signal","","test","<div class = shapebox><img class = stim src = /static/experiments/stop_signal/images/square.png></img></div>","77,90","850","90","low","14","<div class = stopbox><div class = centered-shape id = stop-signal></div><div class = centered-shape id = stop-signal-inner></div></div>","350","go","500","",""
"","-1","-1","500","0","fixation","poldrack-single-stim","263","430494","0.0-34.0","stop_signal","","test","<div class = centerbox><div class = fixation>+</div></div>","none","500","","","","","","","","",""
"","562","77","1850","0","stim","stop-signal","264","432358","0.0-35.0","stop_signal","","test","<div class = shapebox><img class = stim src = /static/experiments/stop_signal/images/pentagon.png></img></div>","77,90","850","77","low","15","<div class = stopbox><div class = centered-shape id = stop-signal></div><div class = centered-shape id = stop-signal-inner></div></div>","350","go","500","",""
"","-1","-1","500","0","fixation","poldrack-single-stim","265","432859","0.0-36.0","stop_signal","","test","<div class = centerbox><div class = fixation>+</div></div>","none","500","","","","","","","","",""
"","508","90","1850","0","stim","stop-signal","266","434713","0.0-37.0","stop_signal","","test","<div class = shapebox><img class = stim src = /static/experiments/stop_signal/images/hourglass.png></img></div>","77,90","850","90","low","16","<div class = stopbox><div class = centered-shape id = stop-signal></div><div class = centered-shape id = stop-signal-inner></div></div>","350","stop","500","",""
"","-1","-1","500","0","fixation","poldrack-single-stim","267","435222","0.0-38.0","stop_signal","","test","<div class = centerbox><div class = fixation>+</div></div>","none","500","","","","","","","","",""
"","561","77","1850","0","stim","stop-signal","268","437075","0.0-39.0","stop_signal","","test","<div class = shapebox><img class = stim src = /static/experiments/stop_signal/images/pentagon.png></img></div>","77,90","850","77","low","17","<div class = stopbox><div class = centered-shape id = stop-signal></div><div class = centered-shape id = stop-signal-inner></div></div>","300","go","500","",""
"","-1","-1","500","0","fixation","poldrack-single-stim","269","437588","0.0-40.0","stop_signal","","test","<div class = centerbox><div class = fixation>+</div></div>","none","500","","","","","","","","",""
"","1020","77","1850","0","stim","stop-signal","270","439442","0.0-41.0","stop_signal","","test","<div class = shapebox><img class = stim src = /static/experiments/stop_signal/images/pentagon.png></img></div>","77,90","850","77","low","18","<div class = stopbox><div class = centered-shape id = stop-signal></div><div class = centered-shape id = stop-signal-inner></div></div>","300","go","500","",""
"","-1","-1","500","0","fixation","poldrack-single-stim","271","439953","0.0-42.0","stop_signal","","test","<div class = centerbox><div class = fixation>+</div></div>","none","500","","","","","","","","",""
"","486","90","1850","0","stim","stop-signal","272","441806","0.0-43.0","stop_signal","","test","<div class = shapebox><img class = stim src = /static/experiments/stop_signal/images/hourglass.png></img></div>","77,90","850","90","low","19","<div class = stopbox><div class = centered-shape id = stop-signal></div><div class = centered-shape id = stop-signal-inner></div></div>","300","go","500","",""
"","-1","-1","500","0","fixation","poldrack-single-stim","273","442320","0.0-44.0","stop_signal","","test","<div class = centerbox><div class = fixation>+</div></div>","none","500","","","","","","","","",""
"","681","77","1850","0","stim","stop-signal","274","444182","0.0-45.0","stop_signal","","test","<div class = shapebox><img class = stim src = /static/experiments/stop_signal/images/pentagon.png></img></div>","77,90","850","77","low","20","<div class = stopbox><div class = centered-shape id = stop-signal></div><div class = centered-shape id = stop-signal-inner></div></div>","300","go","500","",""
"","-1","-1","500","0","fixation","poldrack-single-stim","275","444698","0.0-46.0","stop_signal","","test","<div class = centerbox><div class = fixation>+</div></div>","none","500","","","","","","","","",""
"","606","90","1850","0","stim","stop-signal","276","446553","0.0-47.0","stop_signal","","test","<div class = shapebox><img class = stim src = /static/experiments/stop_signal/images/hourglass.png></img></div>","77,90","850","90","low","21","<div class = stopbox><div class = centered-shape id = stop-signal></div><div class = centered-shape id = stop-signal-inner></div></div>","300","go","500","",""
"","-1","-1","500","0","fixation","poldrack-single-stim","277","447063","0.0-48.0","stop_signal","","test","<div class = centerbox><div class = fixation>+</div></div>","none","500","","","","","","","","",""
"","-1","-1","1850","0","stim","stop-signal","278","448918","0.0-49.0","stop_signal","","test","<div class = shapebox><img class = stim src = /static/experiments/stop_signal/images/hourglass.png></img></div>","77,90","850","90","low","22","<div class = stopbox><div class = centered-shape id = stop-signal></div><div class = centered-shape id = stop-signal-inner></div></div>","300","stop","500","",""
"","-1","-1","500","0","fixation","poldrack-single-stim","279","449432","0.0-50.0","stop_signal","","test","<div class = centerbox><div class = fixation>+</div></div>","none","500","","","","","","","","",""
"","537","77","1850","0","stim","stop-signal","280","451284","0.0-51.0","stop_signal","","test","<div class = shapebox><img class = stim src = /static/experiments/stop_signal/images/pentagon.png></img></div>","77,90","850","77","low","23","<div class = stopbox><div class = centered-shape id = stop-signal></div><div class = centered-shape id = stop-signal-inner></div></div>","350","stop","500","",""
"","-1","-1","500","0","fixation","poldrack-single-stim","281","451798","0.0-52.0","stop_signal","","test","<div class = centerbox><div class = fixation>+</div></div>","none","500","","","","","","","","",""
"","778","90","1850","0","stim","stop-signal","282","453651","0.0-53.0","stop_signal","","test","<div class = shapebox><img class = stim src = /static/experiments/stop_signal/images/pentagon.png></img></div>","77,90","850","77","low","24","<div class = stopbox><div class = centered-shape id = stop-signal></div><div class = centered-shape id = stop-signal-inner></div></div>","300","go","500","",""
"","-1","-1","500","0","fixation","poldrack-single-stim","283","454163","0.0-54.0","stop_signal","","test","<div class = centerbox><div class = fixation>+</div></div>","none","500","","","","","","","","",""
"","557","90","1850","0","stim","stop-signal","284","456017","0.0-55.0","stop_signal","","test","<div class = shapebox><img class = stim src = /static/experiments/stop_signal/images/square.png></img></div>","77,90","850","90","low","25","<div class = stopbox><div class = centered-shape id = stop-signal></div><div class = centered-shape id = stop-signal-inner></div></div>","300","go","500","",""
"","-1","-1","500","0","fixation","poldrack-single-stim","285","456532","0.0-56.0","stop_signal","","test","<div class = centerbox><div class = fixation>+</div></div>","none","500","","","","","","","","",""
"","499","77","1850","0","stim","stop-signal","286","458399","0.0-57.0","stop_signal","","test","<div class = shapebox><img class = stim src = /static/experiments/stop_signal/images/pentagon.png></img></div>","77,90","850","77","low","26","<div class = stopbox><div class = centered-shape id = stop-signal></div><div class = centered-shape id = stop-signal-inner></div></div>","300","go","500","",""
"","-1","-1","500","0","fixation","poldrack-single-stim","287","458910","0.0-58.0","stop_signal","","test","<div class = centerbox><div class = fixation>+</div></div>","none","500","","","","","","","","",""
"","706","77","1850","0","stim","stop-signal","288","460763","0.0-59.0","stop_signal","","test","<div class = shapebox><img class = stim src = /static/experiments/stop_signal/images/tear.png></img></div>","77,90","850","77","low","27","<div class = stopbox><div class = centered-shape id = stop-signal></div><div class = centered-shape id = stop-signal-inner></div></div>","300","go","500","",""
"","-1","-1","500","0","fixation","poldrack-single-stim","289","461279","0.0-60.0","stop_signal","","test","<div class = centerbox><div class = fixation>+</div></div>","none","500","","","","","","","","",""
"","577","77","1850","0","stim","stop-signal","290","463141","0.0-61.0","stop_signal","","test","<div class = shapebox><img class = stim src = /static/experiments/stop_signal/images/tear.png></img></div>","77,90","850","77","low","28","<div class = stopbox><div class = centered-shape id = stop-signal></div><div class = centered-shape id = stop-signal-inner></div></div>","300","go","500","",""
"","-1","-1","500","0","fixation","poldrack-single-stim","291","463654","0.0-62.0","stop_signal","","test","<div class = centerbox><div class = fixation>+</div></div>","none","500","","","","","","","","",""
"","506","77","1850","0","stim","stop-signal","292","465510","0.0-63.0","stop_signal","","test","<div class = shapebox><img class = stim src = /static/experiments/stop_signal/images/tear.png></img></div>","77,90","850","77","low","29","<div class = stopbox><div class = centered-shape id = stop-signal></div><div class = centered-shape id = stop-signal-inner></div></div>","300","go","500","",""
"","-1","-1","500","0","fixation","poldrack-single-stim","293","466023","0.0-64.0","stop_signal","","test","<div class = centerbox><div class = fixation>+</div></div>","none","500","","","","","","","","",""
"","562","77","1850","0","stim","stop-signal","294","467878","0.0-65.0","stop_signal","","test","<div class = shapebox><img class = stim src = /static/experiments/stop_signal/images/tear.png></img></div>","77,90","850","77","low","30","<div class = stopbox><div class = centered-shape id = stop-signal></div><div class = centered-shape id = stop-signal-inner></div></div>","300","go","500","",""
"","-1","-1","500","0","fixation","poldrack-single-stim","295","468391","0.0-66.0","stop_signal","","test","<div class = centerbox><div class = fixation>+</div></div>","none","500","","","","","","","","",""
"","552","90","1850","0","stim","stop-signal","296","470251","0.0-67.0","stop_signal","","test","<div class = shapebox><img class = stim src = /static/experiments/stop_signal/images/square.png></img></div>","77,90","850","90","low","31","<div class = stopbox><div class = centered-shape id = stop-signal></div><div class = centered-shape id = stop-signal-inner></div></div>","300","go","500","",""
"","-1","-1","500","0","fixation","poldrack-single-stim","297","470766","0.0-68.0","stop_signal","","test","<div class = centerbox><div class = fixation>+</div></div>","none","500","","","","","","","","",""
"","883","77","1850","0","stim","stop-signal","298","472629","0.0-69.0","stop_signal","","test","<div class = shapebox><img class = stim src = /static/experiments/stop_signal/images/pentagon.png></img></div>","77,90","850","77","low","32","<div class = stopbox><div class = centered-shape id = stop-signal></div><div class = centered-shape id = stop-signal-inner></div></div>","300","go","500","",""
"","-1","-1","500","0","fixation","poldrack-single-stim","299","473144","0.0-70.0","stop_signal","","test","<div class = centerbox><div class = fixation>+</div></div>","none","500","","","","","","","","",""
"","487","90","1850","0","stim","stop-signal","300","475011","0.0-71.0","stop_signal","","test","<div class = shapebox><img class = stim src = /static/experiments/stop_signal/images/square.png></img></div>","77,90","850","90","low","33","<div class = stopbox><div class = centered-shape id = stop-signal></div><div class = centered-shape id = stop-signal-inner></div></div>","300","go","500","",""
"","-1","-1","500","0","fixation","poldrack-single-stim","301","475526","0.0-72.0","stop_signal","","test","<div class = centerbox><div class = fixation>+</div></div>","none","500","","","","","","","","",""
"","539","90","1850","0","stim","stop-signal","302","477379","0.0-73.0","stop_signal","","test","<div class = shapebox><img class = stim src = /static/experiments/stop_signal/images/square.png></img></div>","77,90","850","90","low","34","<div class = stopbox><div class = centered-shape id = stop-signal></div><div class = centered-shape id = stop-signal-inner></div></div>","300","stop","500","",""
"","-1","-1","500","0","fixation","poldrack-single-stim","303","477891","0.0-74.0","stop_signal","","test","<div class = centerbox><div class = fixation>+</div></div>","none","500","","","","","","","","",""
"","637","77","1850","0","stim","stop-signal","304","479757","0.0-75.0","stop_signal","","test","<div class = shapebox><img class = stim src = /static/experiments/stop_signal/images/square.png></img></div>","77,90","850","90","low","35","<div class = stopbox><div class = centered-shape id = stop-signal></div><div class = centered-shape id = stop-signal-inner></div></div>","250","go","500","",""
"","-1","-1","500","0","fixation","poldrack-single-stim","305","480272","0.0-76.0","stop_signal","","test","<div class = centerbox><div class = fixation>+</div></div>","none","500","","","","","","","","",""
"","544","77","1850","0","stim","stop-signal","306","482124","0.0-77.0","stop_signal","","test","<div class = shapebox><img class = stim src = /static/experiments/stop_signal/images/tear.png></img></div>","77,90","850","77","low","36","<div class = stopbox><div class = centered-shape id = stop-signal></div><div class = centered-shape id = stop-signal-inner></div></div>","250","go","500","",""
"","-1","-1","500","0","fixation","poldrack-single-stim","307","482635","0.0-78.0","stop_signal","","test","<div class = centerbox><div class = fixation>+</div></div>","none","500","","","","","","","","",""
"","598","90","1850","0","stim","stop-signal","308","484497","0.0-79.0","stop_signal","","test","<div class = shapebox><img class = stim src = /static/experiments/stop_signal/images/pentagon.png></img></div>","77,90","850","77","low","37","<div class = stopbox><div class = centered-shape id = stop-signal></div><div class = centered-shape id = stop-signal-inner></div></div>","250","go","500","",""
"","-1","-1","500","0","fixation","poldrack-single-stim","309","485011","0.0-80.0","stop_signal","","test","<div class = centerbox><div class = fixation>+</div></div>","none","500","","","","","","","","",""
"","549","77","1850","0","stim","stop-signal","310","486865","0.0-81.0","stop_signal","","test","<div class = shapebox><img class = stim src = /static/experiments/stop_signal/images/tear.png></img></div>","77,90","850","77","low","38","<div class = stopbox><div class = centered-shape id = stop-signal></div><div class = centered-shape id = stop-signal-inner></div></div>","250","stop","500","",""
"","-1","-1","500","0","fixation","poldrack-single-stim","311","487376","0.0-82.0","stop_signal","","test","<div class = centerbox><div class = fixation>+</div></div>","none","500","","","","","","","","",""
"","648","90","1850","0","stim","stop-signal","312","489243","0.0-83.0","stop_signal","","test","<div class = shapebox><img class = stim src = /static/experiments/stop_signal/images/square.png></img></div>","77,90","850","90","low","39","<div class = stopbox><div class = centered-shape id = stop-signal></div><div class = centered-shape id = stop-signal-inner></div></div>","200","go","500","",""
"","-1","-1","500","0","fixation","poldrack-single-stim","313","489752","0.0-84.0","stop_signal","","test","<div class = centerbox><div class = fixation>+</div></div>","none","500","","","","","","","","",""
"","529","77","1850","0","stim","stop-signal","314","491604","0.0-85.0","stop_signal","","test","<div class = shapebox><img class = stim src = /static/experiments/stop_signal/images/tear.png></img></div>","77,90","850","77","low","40","<div class = stopbox><div class = centered-shape id = stop-signal></div><div class = centered-shape id = stop-signal-inner></div></div>","200","go","500","",""
"","-1","-1","500","0","fixation","poldrack-single-stim","315","492116","0.0-86.0","stop_signal","","test","<div class = centerbox><div class = fixation>+</div></div>","none","500","","","","","","","","",""
"","-1","-1","1850","0","stim","stop-signal","316","493970","0.0-87.0","stop_signal","","test","<div class = shapebox><img class = stim src = /static/experiments/stop_signal/images/hourglass.png></img></div>","77,90","850","90","low","41","<div class = stopbox><div class = centered-shape id = stop-signal></div><div class = centered-shape id = stop-signal-inner></div></div>","200","go","500","",""
"","-1","-1","500","0","fixation","poldrack-single-stim","317","494484","0.0-88.0","stop_signal","","test","<div class = centerbox><div class = fixation>+</div></div>","none","500","","","","","","","","",""
