"text","rt","key_press","block_duration","timing_post_trial","trial_id","trial_type","trial_index","time_elapsed","internal_node_id","exp_id","view_history","exp_stage","stimulus","possible_responses","stim_duration","correct_response","condition","trial_num","SS_stimulus","SS_delay","SS_trial_type","SS_duration","responses","credit_var"
"<div class = centerbox><p class = center-block-text>Welcome to the experiment. This experiment will take about 30 minutes. Press <strong>enter</strong> to begin.</p></div>","14415","13","14415","0","instruction","poldrack-text","0","14418","0.0-0.0-0.0","stop_signal","","","","","","","","","","","","","",""
"","35640","","","","instruction","poldrack-instructions","1","50059","0.0-0.0-1.0","stop_signal","[{""page_index"":0,""viewing_time"":10763},{""page_index"":1,""viewing_time"":24876}]","","","","","","","","","","","","",""
"<div class = centerbox><p class = block-text>We will now start with a practice session. In this practice  concentrate on responding quickly and accurately to each shape. Press <strong>enter</strong> to continue.</p></div>","8157","13","8157","1000","feedback","poldrack-text","2","59224","0.0-1.0-0.0","stop_signal","","practice","","","","","","","","","","","",""
"","-1","-1","500","0","fixation","poldrack-single-stim","3","60753","0.0-1.0-1.0","stop_signal","","practice","<div class = shapebox><div class = fixation>+</div></div>","none","500","","","","","","","","",""
"","-1","-1","1850","0","stim","poldrack-single-stim","4","62611","0.0-1.0-2.0","stop_signal","","NoSS_practice","<div class = shapebox><img class = stim src = /static/experiments/stop_signal/images/tear.png></img></div>","77,90","850","90","NoSS_practice","0","","","","","",""
"","-1","-1","500","0","fixation","poldrack-single-stim","5","63117","0.0-1.0-3.0","stop_signal","","practice","<div class = shapebox><div class = fixation>+</div></div>","none","500","","","","","","","","",""
"","313","90","1850","0","stim","poldrack-single-stim","6","64977","0.0-1.0-4.0","stop_signal","","NoSS_practice","<div class = shapebox><img class = stim src = /static/experiments/stop_signal/images/tear.png></img></div>","77,90","850","90","NoSS_practice","1","","","","","",""
"","-1","-1","500","0","fixation","poldrack-single-stim","7","65488","0.0-1.0-5.0","stop_signal","","practice","<div class = shapebox><div class = fixation>+</div></div>","none","500","","","","","","","","",""
"","1541","77","1850","0","stim","poldrack-single-stim","8","67344","0.0-1.0-6.0","stop_signal","","NoSS_practice","<div class = shapebox><img class = stim src = /static/experiments/stop_signal/images/square.png></img></div>","77,90","850","90","NoSS_practice","2","","","","","",""
"","-1","-1","500","0","fixation","poldrack-single-stim","9","67857","0.0-1.0-7.0","stop_signal","","practice","<div class = shapebox><div class = fixation>+</div></div>","none","500","","","","","","","","",""
"","589","90","1850","0","stim","poldrack-single-stim","10","69714","0.0-1.0-8.0","stop_signal","","NoSS_practice","<div class = shapebox><img class = stim src = /static/experiments/stop_signal/images/pentagon.png></img></div>","77,90","850","77","NoSS_practice","3","","","","","",""
"","-1","-1","500","0","fixation","poldrack-single-stim","11","70226","0.0-1.0-9.0","stop_signal","","practice","<div class = shapebox><div class = fixation>+</div></div>","none","500","","","","","","","","",""
"","708","90","1850","0","stim","poldrack-single-stim","12","72082","0.0-1.0-10.0","stop_signal","","NoSS_practice","<div class = shapebox><img class = stim src = /static/experiments/stop_signal/images/square.png></img></div>","77,90","850","90","NoSS_practice","4","","","","","",""
"","-1","-1","500","0","fixation","poldrack-single-stim","13","72594","0.0-1.0-11.0","stop_signal","","practice","<div class = shapebox><div class = fixation>+</div></div>","none","500","","","","","","","","",""
"","916","77","1850","0","stim","poldrack-single-stim","14","74450","0.0-1.0-12.0","stop_signal","","NoSS_practice","<div class = shapebox><img class = stim src = /static/experiments/stop_signal/images/hourglass.png></img></div>","77,90","850","77","NoSS_practice","5","","","","","",""
"","-1","-1","500","0","fixation","poldrack-single-stim","15","74963","0.0-1.0-13.0","stop_signal","","practice","<div class = shapebox><div class = fixation>+</div></div>","none","500","","","","","","","","",""
"","674","90","1850","0","stim","poldrack-single-stim","16","76819","0.0-1.0-14.0","stop_signal","","NoSS_practice","<div class = shapebox><img class = stim src = /static/experiments/stop_signal/images/pentagon.png></img></div>","77,90","850","77","NoSS_practice","6","","","","","",""
"","-1","-1","500","0","fixation","poldrack-single-stim","17","77331","0.0-1.0-15.0","stop_signal","","practice","<div class = shapebox><div class = fixation>+</div></div>","none","500","","","","","","","","",""
"","771","77","1850","0","stim","poldrack-single-stim","18","79187","0.0-1.0-16.0","stop_signal","","NoSS_practice","<div class = shapebox><img class = stim src = /static/experiments/stop_signal/images/pentagon.png></img></div>","77,90","850","77","NoSS_practice","7","","","","","",""
"","-1","-1","500","0","fixation","poldrack-single-stim","19","79700","0.0-1.0-17.0","stop_signal","","practice","<div class = shapebox><div class = fixation>+</div></div>","none","500","","","","","","","","",""
"","572","90","1850","0","stim","poldrack-single-stim","20","81556","0.0-1.0-18.0","stop_signal","","NoSS_practice","<div class = shapebox><img class = stim src = /static/experiments/stop_signal/images/square.png></img></div>","77,90","850","90","NoSS_practice","8","","","","","",""
"","-1","-1","500","0","fixation","poldrack-single-stim","21","82068","0.0-1.0-19.0","stop_signal","","practice","<div class = shapebox><div class = fixation>+</div></div>","none","500","","","","","","","","",""
"","634","77","1850","0","stim","poldrack-single-stim","22","83925","0.0-1.0-20.0","stop_signal","","NoSS_practice","<div class = shapebox><img class = stim src = /static/experiments/stop_signal/images/hourglass.png></img></div>","77,90","850","77","NoSS_practice","9","","","","","",""
"","-1","-1","500","0","fixation","poldrack-single-stim","23","84437","0.0-1.0-21.0","stop_signal","","practice","<div class = shapebox><div class = fixation>+</div></div>","none","500","","","","","","","","",""
"","682","90","1850","0","stim","poldrack-single-stim","24","86293","0.0-1.0-22.0","stop_signal","","NoSS_practice","<div class = shapebox><img class = stim src = /static/experiments/stop_signal/images/tear.png></img></div>","77,90","850","90","NoSS_practice","10","","","","","",""
"","-1","-1","500","0","fixation","poldrack-single-stim","25","86805","0.0-1.0-23.0","stop_signal","","practice","<div class = shapebox><div class = fixation>+</div></div>","none","500","","","","","","","","",""
"","833","77","1850","0","stim","poldrack-single-stim","26","88655","0.0-1.0-24.0","stop_signal","","NoSS_practice","<div class = shapebox><img class = stim src = /static/experiments/stop_signal/images/hourglass.png></img></div>","77,90","850","77","NoSS_practice","11","","","","","",""
"<div class = centerbox><p class = block-text></p><p class = block-text><strong>Average reaction time:  682 ms. Accuracy for non-star trials: 67%</strong></p><p class = block-text>We will try another practice block. </p><p class = block-text>Your accuracy is too low. Remember, the correct keys are as follows: <ul list-text><li><img class = prompt_stim src = /static/experiments/stop_signal/images/pentagon.png></img>&nbsp&nbsp&nbsp&nbspM key</li><li><img class = prompt_stim src = /static/experiments/stop_signal/images/hourglass.png></img>&nbsp&nbsp&nbsp&nbspM key </li><li><img class = prompt_stim src = /static/experiments/stop_signal/images/tear.png></img>   &nbsp&nbsp&nbsp&nbspZ key </li><li><img class = prompt_stim src = /static/experiments/stop_signal/images/square.png></img>&nbsp&nbsp&nbsp&nbspZ key </li></ul></p><p class = block-text>Press <strong>Enter</strong> to continue</p></div>","22140","13","22140","1000","feedback","poldrack-text","27","110842","0.0-1.1-0.1","stop_signal","","practice","","","","","","","","","","","",""
"","-1","-1","500","0","fixation","poldrack-single-stim","28","112367","0.0-1.1-1.1","stop_signal","","practice","<div class = shapebox><div class = fixation>+</div></div>","none","500","","","","","","","","",""
"","1071","77","1850","0","stim","poldrack-single-stim","29","114226","0.0-1.1-2.1","stop_signal","","NoSS_practice","<div class = shapebox><img class = stim src = /static/experiments/stop_signal/images/pentagon.png></img></div>","77,90","850","77","NoSS_practice","12","","","","","",""
"","-1","-1","500","0","fixation","poldrack-single-stim","30","114738","0.0-1.1-3.1","stop_signal","","practice","<div class = shapebox><div class = fixation>+</div></div>","none","500","","","","","","","","",""
"","549","90","1850","0","stim","poldrack-single-stim","31","116594","0.0-1.1-4.1","stop_signal","","NoSS_practice","<div class = shapebox><img class = stim src = /static/experiments/stop_signal/images/square.png></img></div>","77,90","850","90","NoSS_practice","13","","","","","",""
"","-1","-1","500","0","fixation","poldrack-single-stim","32","117106","0.0-1.1-5.1","stop_signal","","practice","<div class = shapebox><div class = fixation>+</div></div>","none","500","","","","","","","","",""
"","637","77","1850","0","stim","poldrack-single-stim","33","118962","0.0-1.1-6.1","stop_signal","","NoSS_practice","<div class = shapebox><img class = stim src = /static/experiments/stop_signal/images/pentagon.png></img></div>","77,90","850","77","NoSS_practice","14","","","","","",""
"","-1","-1","500","0","fixation","poldrack-single-stim","34","119471","0.0-1.1-7.1","stop_signal","","practice","<div class = shapebox><div class = fixation>+</div></div>","none","500","","","","","","","","",""
"","593","77","1850","0","stim","poldrack-single-stim","35","121331","0.0-1.1-8.1","stop_signal","","NoSS_practice","<div class = shapebox><img class = stim src = /static/experiments/stop_signal/images/hourglass.png></img></div>","77,90","850","77","NoSS_practice","15","","","","","",""
"","-1","-1","500","0","fixation","poldrack-single-stim","36","121843","0.0-1.1-9.1","stop_signal","","practice","<div class = shapebox><div class = fixation>+</div></div>","none","500","","","","","","","","",""
"","524","77","1850","0","stim","poldrack-single-stim","37","123700","0.0-1.1-10.1","stop_signal","","NoSS_practice","<div class = shapebox><img class = stim src = /static/experiments/stop_signal/images/hourglass.png></img></div>","77,90","850","77","NoSS_practice","16","","","","","",""
"","-1","-1","500","0","fixation","poldrack-single-stim","38","124209","0.0-1.1-11.1","stop_signal","","practice","<div class = shapebox><div class = fixation>+</div></div>","none","500","","","","","","","","",""
"","463","90","1850","0","stim","poldrack-single-stim","39","126068","0.0-1.1-12.1","stop_signal","","NoSS_practice","<div class = shapebox><img class = stim src = /static/experiments/stop_signal/images/square.png></img></div>","77,90","850","90","NoSS_practice","17","","","","","",""
"","-1","-1","500","0","fixation","poldrack-single-stim","40","126580","0.0-1.1-13.1","stop_signal","","practice","<div class = shapebox><div class = fixation>+</div></div>","none","500","","","","","","","","",""
"","579","90","1850","0","stim","poldrack-single-stim","41","128436","0.0-1.1-14.1","stop_signal","","NoSS_practice","<div class = shapebox><img class = stim src = /static/experiments/stop_signal/images/tear.png></img></div>","77,90","850","90","NoSS_practice","18","","","","","",""
"","-1","-1","500","0","fixation","poldrack-single-stim","42","128946","0.0-1.1-15.1","stop_signal","","practice","<div class = shapebox><div class = fixation>+</div></div>","none","500","","","","","","","","",""
"","565","77","1850","0","stim","poldrack-single-stim","43","130805","0.0-1.1-16.1","stop_signal","","NoSS_practice","<div class = shapebox><img class = stim src = /static/experiments/stop_signal/images/pentagon.png></img></div>","77,90","850","77","NoSS_practice","19","","","","","",""
"","-1","-1","500","0","fixation","poldrack-single-stim","44","131317","0.0-1.1-17.1","stop_signal","","practice","<div class = shapebox><div class = fixation>+</div></div>","none","500","","","","","","","","",""
"","490","77","1850","0","stim","poldrack-single-stim","45","133173","0.0-1.1-18.1","stop_signal","","NoSS_practice","<div class = shapebox><img class = stim src = /static/experiments/stop_signal/images/tear.png></img></div>","77,90","850","90","NoSS_practice","20","","","","","",""
"","-1","-1","500","0","fixation","poldrack-single-stim","46","133686","0.0-1.1-19.1","stop_signal","","practice","<div class = shapebox><div class = fixation>+</div></div>","none","500","","","","","","","","",""
"","641","90","1850","0","stim","poldrack-single-stim","47","135542","0.0-1.1-20.1","stop_signal","","NoSS_practice","<div class = shapebox><img class = stim src = /static/experiments/stop_signal/images/tear.png></img></div>","77,90","850","90","NoSS_practice","21","","","","","",""
"","-1","-1","500","0","fixation","poldrack-single-stim","48","136054","0.0-1.1-21.1","stop_signal","","practice","<div class = shapebox><div class = fixation>+</div></div>","none","500","","","","","","","","",""
"","648","77","1850","0","stim","poldrack-single-stim","49","137911","0.0-1.1-22.1","stop_signal","","NoSS_practice","<div class = shapebox><img class = stim src = /static/experiments/stop_signal/images/hourglass.png></img></div>","77,90","850","77","NoSS_practice","22","","","","","",""
"","-1","-1","500","0","fixation","poldrack-single-stim","50","138423","0.0-1.1-23.1","stop_signal","","practice","<div class = shapebox><div class = fixation>+</div></div>","none","500","","","","","","","","",""
"","688","90","1850","0","stim","poldrack-single-stim","51","140279","0.0-1.1-24.1","stop_signal","","NoSS_practice","<div class = shapebox><img class = stim src = /static/experiments/stop_signal/images/square.png></img></div>","77,90","850","90","NoSS_practice","23","","","","","",""
"<div class = centerbox><p class = block-text></p><p class = block-text><strong>Average reaction time:  586 ms. Accuracy for non-star trials: 92%</strong></p><p class = block-text>For the rest of the experiment, on some proportion of trials a black ""stop signal"" in the shape of a star will appear around the shape. When this happens please try your best to stop your response and press nothing on that trial.</p><p class = block-text>The star will appear around the same time or shortly after the shape appears. Because of this, you will not always be able to successfully stop when a star appears. However, if you continue to try very hard to stop when a star appears, you will be able to stop sometimes but not always.</p><p class = block-text><strong>Please balance the requirement to respond quickly and accurately to the shapes while trying very hard to stop to the stop signal.</strong></p><p class = block-text>Press <strong>Enter</strong> to continue</p></div>","31168","13","31168","1000","feedback","poldrack-text","52","171456","0.0-2.0-0.0","stop_signal","","practice","","","","","","","","","","","",""
"","-1","-1","500","0","fixation","poldrack-single-stim","53","172971","0.0-2.0-1.0","stop_signal","","practice","<div class = shapebox><div class = fixation>+</div></div>","none","500","","","","","","","","",""
"","1137","77","1850","0","stim","stop-signal","54","174830","0.0-2.0-2.0","stop_signal","","practice","<div class = shapebox><img class = stim src = /static/experiments/stop_signal/images/hourglass.png></img></div>","77,90","850","77","practice","0","<div class = stopbox><div class = centered-shape id = stop-signal></div><div class = centered-shape id = stop-signal-inner></div></div>","250","stop","500","",""
"","-1","-1","500","0","fixation","poldrack-single-stim","55","175342","0.0-2.0-3.0","stop_signal","","practice","<div class = shapebox><div class = fixation>+</div></div>","none","500","","","","","","","","",""
"","1087","90","1850","0","stim","stop-signal","56","177198","0.0-2.0-4.0","stop_signal","","practice","<div class = shapebox><img class = stim src = /static/experiments/stop_signal/images/square.png></img></div>","77,90","850","90","practice","1","<div class = stopbox><div class = centered-shape id = stop-signal></div><div class = centered-shape id = stop-signal-inner></div></div>","250","stop","500","",""
"","-1","-1","500","0","fixation","poldrack-single-stim","57","177711","0.0-2.0-5.0","stop_signal","","practice","<div class = shapebox><div class = fixation>+</div></div>","none","500","","","","","","","","",""
"","662","90","1850","0","stim","stop-signal","58","179566","0.0-2.0-6.0","stop_signal","","practice","<div class = shapebox><img class = stim src = /static/experiments/stop_signal/images/tear.png></img></div>","77,90","850","90","practice","2","<div class = stopbox><div class = centered-shape id = stop-signal></div><div class = centered-shape id = stop-signal-inner></div></div>","250","go","500","",""
"","-1","-1","500","0","fixation","poldrack-single-stim","59","180079","0.0-2.0-7.0","stop_signal","","practice","<div class = shapebox><div class = fixation>+</div></div>","none","500","","","","","","","","",""
"","710","77","1850","0","stim","stop-signal","60","181935","0.0-2.0-8.0","stop_signal","","practice","<div class = shapebox><img class = stim src = /static/experiments/stop_signal/images/hourglass.png></img></div>","77,90","850","77","practice","3","<div class = stopbox><div class = centered-shape id = stop-signal></div><div class = centered-shape id = stop-signal-inner></div></div>","250","stop","500","",""
"","-1","-1","500","0","fixation","poldrack-single-stim","61","182449","0.0-2.0-9.0","stop_signal","","practice","<div class = shapebox><div class = fixation>+</div></div>","none","500","","","","","","","","",""
"","708","90","1850","0","stim","stop-signal","62","184303","0.0-2.0-10.0","stop_signal","","practice","<div class = shapebox><img class = stim src = /static/experiments/stop_signal/images/tear.png></img></div>","77,90","850","90","practice","4","<div class = stopbox><div class = centered-shape id = stop-signal></div><div class = centered-shape id = stop-signal-inner></div></div>","250","go","500","",""
"","-1","-1","500","0","fixation","poldrack-single-stim","63","184813","0.0-2.0-11.0","stop_signal","","practice","<div class = shapebox><div class = fixation>+</div></div>","none","500","","","","","","","","",""
"","728","77","1850","0","stim","stop-signal","64","186671","0.0-2.0-12.0","stop_signal","","practice","<div class = shapebox><img class = stim src = /static/experiments/stop_signal/images/pentagon.png></img></div>","77,90","850","77","practice","5","<div class = stopbox><div class = centered-shape id = stop-signal></div><div class = centered-shape id = stop-signal-inner></div></div>","250","stop","500","",""
"","-1","-1","500","0","fixation","poldrack-single-stim","65","187185","0.0-2.0-13.0","stop_signal","","practice","<div class = shapebox><div class = fixation>+</div></div>","none","500","","","","","","","","",""
"","460","90","1850","0","stim","stop-signal","66","189040","0.0-2.0-14.0","stop_signal","","practice","<div class = shapebox><img class = stim src = /static/experiments/stop_signal/images/square.png></img></div>","77,90","850","90","practice","6","<div class = stopbox><div class = centered-shape id = stop-signal></div><div class = centered-shape id = stop-signal-inner></div></div>","250","go","500","",""
"","-1","-1","500","0","fixation","poldrack-single-stim","67","189553","0.0-2.0-15.0","stop_signal","","practice","<div class = shapebox><div class = fixation>+</div></div>","none","500","","","","","","","","",""
"","619","77","1850","0","stim","stop-signal","68","191409","0.0-2.0-16.0","stop_signal","","practice","<div class = shapebox><img class = stim src = /static/experiments/stop_signal/images/tear.png></img></div>","77,90","850","90","practice","7","<div class = stopbox><div class = centered-shape id = stop-signal></div><div class = centered-shape id = stop-signal-inner></div></div>","250","stop","500","",""
"","-1","-1","500","0","fixation","poldrack-single-stim","69","191917","0.0-2.0-17.0","stop_signal","","practice","<div class = shapebox><div class = fixation>+</div></div>","none","500","","","","","","","","",""
"","816","77","1850","0","stim","stop-signal","70","193778","0.0-2.0-18.0","stop_signal","","practice","<div class = shapebox><img class = stim src = /static/experiments/stop_signal/images/square.png></img></div>","77,90","850","90","practice","8","<div class = stopbox><div class = centered-shape id = stop-signal></div><div class = centered-shape id = stop-signal-inner></div></div>","250","go","500","",""
"","-1","-1","500","0","fixation","poldrack-single-stim","71","194291","0.0-2.0-19.0","stop_signal","","practice","<div class = shapebox><div class = fixation>+</div></div>","none","500","","","","","","","","",""
"","546","90","1850","0","stim","stop-signal","72","196146","0.0-2.0-20.0","stop_signal","","practice","<div class = shapebox><img class = stim src = /static/experiments/stop_signal/images/square.png></img></div>","77,90","850","90","practice","9","<div class = stopbox><div class = centered-shape id = stop-signal></div><div class = centered-shape id = stop-signal-inner></div></div>","250","go","500","",""
"","-1","-1","500","0","fixation","poldrack-single-stim","73","196659","0.0-2.0-21.0","stop_signal","","practice","<div class = shapebox><div class = fixation>+</div></div>","none","500","","","","","","","","",""
"","825","77","1850","0","stim","stop-signal","74","198514","0.0-2.0-22.0","stop_signal","","practice","<div class = shapebox><img class = stim src = /static/experiments/stop_signal/images/hourglass.png></img></div>","77,90","850","77","practice","10","<div class = stopbox><div class = centered-shape id = stop-signal></div><div class = centered-shape id = stop-signal-inner></div></div>","250","go","500","",""
"","-1","-1","500","0","fixation","poldrack-single-stim","75","199027","0.0-2.0-23.0","stop_signal","","practice","<div class = shapebox><div class = fixation>+</div></div>","none","500","","","","","","","","",""
"","882","90","1850","0","stim","stop-signal","76","200883","0.0-2.0-24.0","stop_signal","","practice","<div class = shapebox><img class = stim src = /static/experiments/stop_signal/images/pentagon.png></img></div>","77,90","850","77","practice","11","<div class = stopbox><div class = centered-shape id = stop-signal></div><div class = centered-shape id = stop-signal-inner></div></div>","250","go","500","",""
"","-1","-1","500","0","fixation","poldrack-single-stim","77","201396","0.0-2.0-25.0","stop_signal","","practice","<div class = shapebox><div class = fixation>+</div></div>","none","500","","","","","","","","",""
"","937","77","1850","0","stim","stop-signal","78","203252","0.0-2.0-26.0","stop_signal","","practice","<div class = shapebox><img class = stim src = /static/experiments/stop_signal/images/pentagon.png></img></div>","77,90","850","77","practice","12","<div class = stopbox><div class = centered-shape id = stop-signal></div><div class = centered-shape id = stop-signal-inner></div></div>","250","stop","500","",""
"","-1","-1","500","0","fixation","poldrack-single-stim","79","203765","0.0-2.0-27.0","stop_signal","","practice","<div class = shapebox><div class = fixation>+</div></div>","none","500","","","","","","","","",""
"","536","90","1850","0","stim","stop-signal","80","205620","0.0-2.0-28.0","stop_signal","","practice","<div class = shapebox><img class = stim src = /static/experiments/stop_signal/images/tear.png></img></div>","77,90","850","90","practice","13","<div class = stopbox><div class = centered-shape id = stop-signal></div><div class = centered-shape id = stop-signal-inner></div></div>","250","go","500","",""
"","-1","-1","500","0","fixation","poldrack-single-stim","81","206135","0.0-2.0-29.0","stop_signal","","practice","<div class = shapebox><div class = fixation>+</div></div>","none","500","","","","","","","","",""
"","654","90","1850","0","stim","stop-signal","82","207989","0.0-2.0-30.0","stop_signal","","practice","<div class = shapebox><img class = stim src = /static/experiments/stop_signal/images/tear.png></img></div>","77,90","850","90","practice","14","<div class = stopbox><div class = centered-shape id = stop-signal></div><div class = centered-shape id = stop-signal-inner></div></div>","250","go","500","",""
"","-1","-1","500","0","fixation","poldrack-single-stim","83","208494","0.0-2.0-31.0","stop_signal","","practice","<div class = shapebox><div class = fixation>+</div></div>","none","500","","","","","","","","",""
"","479","90","1850","0","stim","stop-signal","84","210349","0.0-2.0-32.0","stop_signal","","practice","<div class = shapebox><img class = stim src = /static/experiments/stop_signal/images/square.png></img></div>","77,90","850","90","practice","15","<div class = stopbox><div class = centered-shape id = stop-signal></div><div class = centered-shape id = stop-signal-inner></div></div>","250","go","500","",""
"","-1","-1","500","0","fixation","poldrack-single-stim","85","210862","0.0-2.0-33.0","stop_signal","","practice","<div class = shapebox><div class = fixation>+</div></div>","none","500","","","","","","","","",""
"","599","77","1850","0","stim","stop-signal","86","212717","0.0-2.0-34.0","stop_signal","","practice","<div class = shapebox><img class = stim src = /static/experiments/stop_signal/images/hourglass.png></img></div>","77,90","850","77","practice","16","<div class = stopbox><div class = centered-shape id = stop-signal></div><div class = centered-shape id = stop-signal-inner></div></div>","250","go","500","",""
"","-1","-1","500","0","fixation","poldrack-single-stim","87","213231","0.0-2.0-35.0","stop_signal","","practice","<div class = shapebox><div class = fixation>+</div></div>","none","500","","","","","","","","",""
"","798","77","1850","0","stim","stop-signal","88","215086","0.0-2.0-36.0","stop_signal","","practice","<div class = shapebox><img class = stim src = /static/experiments/stop_signal/images/hourglass.png></img></div>","77,90","850","77","practice","17","<div class = stopbox><div class = centered-shape id = stop-signal></div><div class = centered-shape id = stop-signal-inner></div></div>","250","go","500","",""
"","-1","-1","500","0","fixation","poldrack-single-stim","89","215599","0.0-2.0-37.0","stop_signal","","practice","<div class = shapebox><div class = fixation>+</div></div>","none","500","","","","","","","","",""
"","717","77","1850","0","stim","stop-signal","90","217455","0.0-2.0-38.0","stop_signal","","practice","<div class = shapebox><img class = stim src = /static/experiments/stop_signal/images/pentagon.png></img></div>","77,90","850","77","practice","18","<div class = stopbox><div class = centered-shape id = stop-signal></div><div class = centered-shape id = stop-signal-inner></div></div>","250","go","500","",""
"","-1","-1","500","0","fixation","poldrack-single-stim","91","217968","0.0-2.0-39.0","stop_signal","","practice","<div class = shapebox><div class = fixation>+</div></div>","none","500","","","","","","","","",""
"","605","77","1850","0","stim","stop-signal","92","219824","0.0-2.0-40.0","stop_signal","","practice","<div class = shapebox><img class = stim src = /static/experiments/stop_signal/images/pentagon.png></img></div>","77,90","850","77","practice","19","<div class = stopbox><div class = centered-shape id = stop-signal></div><div class = centered-shape id = stop-signal-inner></div></div>","250","go","500","",""
"<div class = centerbox><p class = block-text></p><p class = block-text><strong>Average reaction time:  658 ms. Accuracy for non-star trials: 86%</strong></p><p class = block-text>We will try another practice block. </p><p class = block-text><strong>Remember to try and withhold your response when you see a stop signal.</strong></p><p class = block-text>Press <strong>Enter</strong> to continue</p></div>","13964","13","13964","1000","feedback","poldrack-text","93","233791","0.0-2.1-0.1","stop_signal","","practice","","","","","","","","","","","",""
"","-1","-1","500","0","fixation","poldrack-single-stim","94","235312","0.0-2.1-1.1","stop_signal","","practice","<div class = shapebox><div class = fixation>+</div></div>","none","500","","","","","","","","",""
"","845","77","1850","0","stim","stop-signal","95","237170","0.0-2.1-2.1","stop_signal","","practice","<div class = shapebox><img class = stim src = /static/experiments/stop_signal/images/pentagon.png></img></div>","77,90","850","77","practice","20","<div class = stopbox><div class = centered-shape id = stop-signal></div><div class = centered-shape id = stop-signal-inner></div></div>","250","go","500","",""
"","-1","-1","500","0","fixation","poldrack-single-stim","96","237680","0.0-2.1-3.1","stop_signal","","practice","<div class = shapebox><div class = fixation>+</div></div>","none","500","","","","","","","","",""
"","-1","-1","1850","0","stim","stop-signal","97","239539","0.0-2.1-4.1","stop_signal","","practice","<div class = shapebox><img class = stim src = /static/experiments/stop_signal/images/tear.png></img></div>","77,90","850","90","practice","21","<div class = stopbox><div class = centered-shape id = stop-signal></div><div class = centered-shape id = stop-signal-inner></div></div>","250","stop","500","",""
"","-1","-1","500","0","fixation","poldrack-single-stim","98","240052","0.0-2.1-5.1","stop_signal","","practice","<div class = shapebox><div class = fixation>+</div></div>","none","500","","","","","","","","",""
"","953","77","1850","0","stim","stop-signal","99","241908","0.0-2.1-6.1","stop_signal","","practice","<div class = shapebox><img class = stim src = /static/experiments/stop_signal/images/hourglass.png></img></div>","77,90","850","77","practice","22","<div class = stopbox><div class = centered-shape id = stop-signal></div><div class = centered-shape id = stop-signal-inner></div></div>","250","go","500","",""
"","-1","-1","500","0","fixation","poldrack-single-stim","100","242421","0.0-2.1-7.1","stop_signal","","practice","<div class = shapebox><div class = fixation>+</div></div>","none","500","","","","","","","","",""
"","536","77","1850","0","stim","stop-signal","101","244276","0.0-2.1-8.1","stop_signal","","practice","<div class = shapebox><img class = stim src = /static/experiments/stop_signal/images/hourglass.png></img></div>","77,90","850","77","practice","23","<div class = stopbox><div class = centered-shape id = stop-signal></div><div class = centered-shape id = stop-signal-inner></div></div>","250","stop","500","",""
"","-1","-1","500","0","fixation","poldrack-single-stim","102","244789","0.0-2.1-9.1","stop_signal","","practice","<div class = shapebox><div class = fixation>+</div></div>","none","500","","","","","","","","",""
"","-1","-1","1850","0","stim","stop-signal","103","246645","0.0-2.1-10.1","stop_signal","","practice","<div class = shapebox><img class = stim src = /static/experiments/stop_signal/images/hourglass.png></img></div>","77,90","850","77","practice","24","<div class = stopbox><div class = centered-shape id = stop-signal></div><div class = centered-shape id = stop-signal-inner></div></div>","250","stop","500","",""
"","-1","-1","500","0","fixation","poldrack-single-stim","104","247158","0.0-2.1-11.1","stop_signal","","practice","<div class = shapebox><div class = fixation>+</div></div>","none","500","","","","","","","","",""
"","-1","-1","1850","0","stim","stop-signal","105","249013","0.0-2.1-12.1","stop_signal","","practice","<div class = shapebox><img class = stim src = /static/experiments/stop_signal/images/pentagon.png></img></div>","77,90","850","77","practice","25","<div class = stopbox><div class = centered-shape id = stop-signal></div><div class = centered-shape id = stop-signal-inner></div></div>","250","stop","500","",""
"","-1","-1","500","0","fixation","poldrack-single-stim","106","249527","0.0-2.1-13.1","stop_signal","","practice","<div class = shapebox><div class = fixation>+</div></div>","none","500","","","","","","","","",""
"","686","77","1850","0","stim","stop-signal","107","251382","0.0-2.1-14.1","stop_signal","","practice","<div class = shapebox><img class = stim src = /static/experiments/stop_signal/images/hourglass.png></img></div>","77,90","850","77","practice","26","<div class = stopbox><div class = centered-shape id = stop-signal></div><div class = centered-shape id = stop-signal-inner></div></div>","250","go","500","",""
"","-1","-1","500","0","fixation","poldrack-single-stim","108","251895","0.0-2.1-15.1","stop_signal","","practice","<div class = shapebox><div class = fixation>+</div></div>","none","500","","","","","","","","",""
"","831","77","1850","0","stim","stop-signal","109","253750","0.0-2.1-16.1","stop_signal","","practice","<div class = shapebox><img class = stim src = /static/experiments/stop_signal/images/pentagon.png></img></div>","77,90","850","77","practice","27","<div class = stopbox><div class = centered-shape id = stop-signal></div><div class = centered-shape id = stop-signal-inner></div></div>","250","go","500","",""
"","-1","-1","500","0","fixation","poldrack-single-stim","110","254263","0.0-2.1-17.1","stop_signal","","practice","<div class = shapebox><div class = fixation>+</div></div>","none","500","","","","","","","","",""
"","638","90","1850","0","stim","stop-signal","111","256119","0.0-2.1-18.1","stop_signal","","practice","<div class = shapebox><img class = stim src = /static/experiments/stop_signal/images/square.png></img></div>","77,90","850","90","practice","28","<div class = stopbox><div class = centered-shape id = stop-signal></div><div class = centered-shape id = stop-signal-inner></div></div>","250","stop","500","",""
"","-1","-1","500","0","fixation","poldrack-single-stim","112","256632","0.0-2.1-19.1","stop_signal","","practice","<div class = shapebox><div class = fixation>+</div></div>","none","500","","","","","","","","",""
"","477","90","1850","0","stim","stop-signal","113","258487","0.0-2.1-20.1","stop_signal","","practice","<div class = shapebox><img class = stim src = /static/experiments/stop_signal/images/square.png></img></div>","77,90","850","90","practice","29","<div class = stopbox><div class = centered-shape id = stop-signal></div><div class = centered-shape id = stop-signal-inner></div></div>","250","go","500","",""
"","-1","-1","500","0","fixation","poldrack-single-stim","114","258997","0.0-2.1-21.1","stop_signal","","practice","<div class = shapebox><div class = fixation>+</div></div>","none","500","","","","","","","","",""
"","696","77","1850","0","stim","stop-signal","115","260855","0.0-2.1-22.1","stop_signal","","practice","<div class = shapebox><img class = stim src = /static/experiments/stop_signal/images/hourglass.png></img></div>","77,90","850","77","practice","30","<div class = stopbox><div class = centered-shape id = stop-signal></div><div class = centered-shape id = stop-signal-inner></div></div>","250","go","500","",""
"","-1","-1","500","0","fixation","poldrack-single-stim","116","261369","0.0-2.1-23.1","stop_signal","","practice","<div class = shapebox><div class = fixation>+</div></div>","none","500","","","","","","","","",""
"","869","90","1850","0","stim","stop-signal","117","263224","0.0-2.1-24.1","stop_signal","","practice","<div class = shapebox><img class = stim src = /static/experiments/stop_signal/images/tear.png></img></div>","77,90","850","90","practice","31","<div class = stopbox><div class = centered-shape id = stop-signal></div><div class = centered-shape id = stop-signal-inner></div></div>","250","go","500","",""
"","-1","-1","500","0","fixation","poldrack-single-stim","118","263737","0.0-2.1-25.1","stop_signal","","practice","<div class = shapebox><div class = fixation>+</div></div>","none","500","","","","","","","","",""
"","595","77","1850","0","stim","stop-signal","119","265593","0.0-2.1-26.1","stop_signal","","practice","<div class = shapebox><img class = stim src = /static/experiments/stop_signal/images/tear.png></img></div>","77,90","850","90","practice","32","<div class = stopbox><div class = centered-shape id = stop-signal></div><div class = centered-shape id = stop-signal-inner></div></div>","250","go","500","",""
"","-1","-1","500","0","fixation","poldrack-single-stim","120","266103","0.0-2.1-27.1","stop_signal","","practice","<div class = shapebox><div class = fixation>+</div></div>","none","500","","","","","","","","",""
"","542","90","1850","0","stim","stop-signal","121","267962","0.0-2.1-28.1","stop_signal","","practice","<div class = shapebox><img class = stim src = /static/experiments/stop_signal/images/tear.png></img></div>","77,90","850","90","practice","33","<div class = stopbox><div class = centered-shape id = stop-signal></div><div class = centered-shape id = stop-signal-inner></div></div>","250","go","500","",""
"","-1","-1","500","0","fixation","poldrack-single-stim","122","268486","0.0-2.1-29.1","stop_signal","","practice","<div class = shapebox><div class = fixation>+</div></div>","none","500","","","","","","","","",""
"","513","90","1850","0","stim","stop-signal","123","270341","0.0-2.1-30.1","stop_signal","","practice","<div class = shapebox><img class = stim src = /static/experiments/stop_signal/images/square.png></img></div>","77,90","850","90","practice","34","<div class = stopbox><div class = centered-shape id = stop-signal></div><div class = centered-shape id = stop-signal-inner></div></div>","250","go","500","",""
"","-1","-1","500","0","fixation","poldrack-single-stim","124","270855","0.0-2.1-31.1","stop_signal","","practice","<div class = shapebox><div class = fixation>+</div></div>","none","500","","","","","","","","",""
"","-1","-1","1850","0","stim","stop-signal","125","272710","0.0-2.1-32.1","stop_signal","","practice","<div class = shapebox><img class = stim src = /static/experiments/stop_signal/images/square.png></img></div>","77,90","850","90","practice","35","<div class = stopbox><div class = centered-shape id = stop-signal></div><div class = centered-shape id = stop-signal-inner></div></div>","250","stop","500","",""
"","-1","-1","500","0","fixation","poldrack-single-stim","126","273223","0.0-2.1-33.1","stop_signal","","practice","<div class = shapebox><div class = fixation>+</div></div>","none","500","","","","","","","","",""
"","666","90","1850","0","stim","stop-signal","127","275079","0.0-2.1-34.1","stop_signal","","practice","<div class = shapebox><img class = stim src = /static/experiments/stop_signal/images/square.png></img></div>","77,90","850","90","practice","36","<div class = stopbox><div class = centered-shape id = stop-signal></div><div class = centered-shape id = stop-signal-inner></div></div>","250","go","500","",""
"","-1","-1","500","0","fixation","poldrack-single-stim","128","275592","0.0-2.1-35.1","stop_signal","","practice","<div class = shapebox><div class = fixation>+</div></div>","none","500","","","","","","","","",""
"","737","77","1850","0","stim","stop-signal","129","277447","0.0-2.1-36.1","stop_signal","","practice","<div class = shapebox><img class = stim src = /static/experiments/stop_signal/images/pentagon.png></img></div>","77,90","850","77","practice","37","<div class = stopbox><div class = centered-shape id = stop-signal></div><div class = centered-shape id = stop-signal-inner></div></div>","250","go","500","",""
"","-1","-1","500","0","fixation","poldrack-single-stim","130","277960","0.0-2.1-37.1","stop_signal","","practice","<div class = shapebox><div class = fixation>+</div></div>","none","500","","","","","","","","",""
"","848","77","1850","0","stim","stop-signal","131","279816","0.0-2.1-38.1","stop_signal","","practice","<div class = shapebox><img class = stim src = /static/experiments/stop_signal/images/pentagon.png></img></div>","77,90","850","77","practice","38","<div class = stopbox><div class = centered-shape id = stop-signal></div><div class = centered-shape id = stop-signal-inner></div></div>","250","go","500","",""
"","-1","-1","500","0","fixation","poldrack-single-stim","132","280325","0.0-2.1-39.1","stop_signal","","practice","<div class = shapebox><div class = fixation>+</div></div>","none","500","","","","","","","","",""
"","619","90","1850","0","stim","stop-signal","133","282184","0.0-2.1-40.1","stop_signal","","practice","<div class = shapebox><img class = stim src = /static/experiments/stop_signal/images/tear.png></img></div>","77,90","850","90","practice","39","<div class = stopbox><div class = centered-shape id = stop-signal></div><div class = centered-shape id = stop-signal-inner></div></div>","250","go","500","",""
"<div class = centerbox><p class = block-text></p><p class = block-text><strong>Average reaction time:  691 ms. Accuracy for non-star trials: 93%</strong></p><p class = block-text>Done with practice. We will now begin the 12 test blocks. There will be a break after each block. Press <strong>enter</strong> to continue.</p></div>","9341","13","9341","1000","feedback","poldrack-text","134","291531","0.0-3.0","stop_signal","","practice","","","","","","","","","","","",""
"","-1","-1","500","0","fixation","poldrack-single-stim","135","293047","0.0-4.0","stop_signal","","test","<div class = centerbox><div class = fixation>+</div></div>","none","500","","","","","","","","",""
"","521","90","1850","0","stim","stop-signal","136","294911","0.0-5.0","stop_signal","","test","<div class = shapebox><img class = stim src = /static/experiments/stop_signal/images/square.png></img></div>","77,90","850","90","high","0","<div class = stopbox><div class = centered-shape id = stop-signal></div><div class = centered-shape id = stop-signal-inner></div></div>","250","stop","500","",""
"","-1","-1","500","0","fixation","poldrack-single-stim","137","295417","0.0-6.0","stop_signal","","test","<div class = centerbox><div class = fixation>+</div></div>","none","500","","","","","","","","",""
"","-1","-1","1850","0","stim","stop-signal","138","297280","0.0-7.0","stop_signal","","test","<div class = shapebox><img class = stim src = /static/experiments/stop_signal/images/square.png></img></div>","77,90","850","90","high","1","<div class = stopbox><div class = centered-shape id = stop-signal></div><div class = centered-shape id = stop-signal-inner></div></div>","200","stop","500","",""
"","-1","-1","500","0","fixation","poldrack-single-stim","139","297785","0.0-8.0","stop_signal","","test","<div class = centerbox><div class = fixation>+</div></div>","none","500","","","","","","","","",""
"","640","77","1850","0","stim","stop-signal","140","299648","0.0-9.0","stop_signal","","test","<div class = shapebox><img class = stim src = /static/experiments/stop_signal/images/hourglass.png></img></div>","77,90","850","77","high","2","<div class = stopbox><div class = centered-shape id = stop-signal></div><div class = centered-shape id = stop-signal-inner></div></div>","250","go","500","",""
"","-1","-1","500","0","fixation","poldrack-single-stim","141","300154","0.0-10.0","stop_signal","","test","<div class = centerbox><div class = fixation>+</div></div>","none","500","","","","","","","","",""
"","-1","-1","1850","0","stim","stop-signal","142","302017","0.0-11.0","stop_signal","","test","<div class = shapebox><img class = stim src = /static/experiments/stop_signal/images/hourglass.png></img></div>","77,90","850","77","high","3","<div class = stopbox><div class = centered-shape id = stop-signal></div><div class = centered-shape id = stop-signal-inner></div></div>","250","stop","500","",""
"","-1","-1","500","0","fixation","poldrack-single-stim","143","302522","0.0-12.0","stop_signal","","test","<div class = centerbox><div class = fixation>+</div></div>","none","500","","","","","","","","",""
"","848","77","1850","0","stim","stop-signal","144","304385","0.0-13.0","stop_signal","","test","<div class = shapebox><img class = stim src = /static/experiments/stop_signal/images/pentagon.png></img></div>","77,90","850","77","high","4","<div class = stopbox><div class = centered-shape id = stop-signal></div><div class = centered-shape id = stop-signal-inner></div></div>","300","go","500","",""
"","-1","-1","500","0","fixation","poldrack-single-stim","145","304891","0.0-14.0","stop_signal","","test","<div class = centerbox><div class = fixation>+</div></div>","none","500","","","","","","","","",""
"","-1","-1","1850","0","stim","stop-signal","146","306754","0.0-15.0","stop_signal","","test","<div class = shapebox><img class = stim src = /static/experiments/stop_signal/images/tear.png></img></div>","77,90","850","90","high","5","<div class = stopbox><div class = centered-shape id = stop-signal></div><div class = centered-shape id = stop-signal-inner></div></div>","300","stop","500","",""
"","-1","-1","500","0","fixation","poldrack-single-stim","147","307257","0.0-16.0","stop_signal","","test","<div class = centerbox><div class = fixation>+</div></div>","none","500","","","","","","","","",""
"","808","77","1850","0","stim","stop-signal","148","309109","0.0-17.0","stop_signal","","test","<div class = shapebox><img class = stim src = /static/experiments/stop_signal/images/square.png></img></div>","77,90","850","90","high","6","<div class = stopbox><div class = centered-shape id = stop-signal></div><div class = centered-shape id = stop-signal-inner></div></div>","350","go","500","",""
"","-1","-1","500","0","fixation","poldrack-single-stim","149","309613","0.0-18.0","stop_signal","","test","<div class = centerbox><div class = fixation>+</div></div>","none","500","","","","","","","","",""
"","780","90","1850","0","stim","stop-signal","150","311474","0.0-19.0","stop_signal","","test","<div class = shapebox><img class = stim src = /static/experiments/stop_signal/images/pentagon.png></img></div>","77,90","850","77","high","7","<div class = stopbox><div class = centered-shape id = stop-signal></div><div class = centered-shape id = stop-signal-inner></div></div>","350","go","500","",""
"","-1","-1","500","0","fixation","poldrack-single-stim","151","311982","0.0-20.0","stop_signal","","test","<div class = centerbox><div class = fixation>+</div></div>","none","500","","","","","","","","",""
"","956","77","1850","0","stim","stop-signal","152","313843","0.0-21.0","stop_signal","","test","<div class = shapebox><img class = stim src = /static/experiments/stop_signal/images/hourglass.png></img></div>","77,90","850","77","high","8","<div class = stopbox><div class = centered-shape id = stop-signal></div><div class = centered-shape id = stop-signal-inner></div></div>","350","go","500","",""
"","-1","-1","500","0","fixation","poldrack-single-stim","153","314346","0.0-22.0","stop_signal","","test","<div class = centerbox><div class = fixation>+</div></div>","none","500","","","","","","","","",""
"","616","77","1850","0","stim","stop-signal","154","316211","0.0-23.0","stop_signal","","test","<div class = shapebox><img class = stim src = /static/experiments/stop_signal/images/pentagon.png></img></div>","77,90","850","77","high","9","<div class = stopbox><div class = centered-shape id = stop-signal></div><div class = centered-shape id = stop-signal-inner></div></div>","350","go","500","",""
"","-1","-1","500","0","fixation","poldrack-single-stim","155","316718","0.0-24.0","stop_signal","","test","<div class = centerbox><div class = fixation>+</div></div>","none","500","","","","","","","","",""
"","739","90","1850","0","stim","stop-signal","156","318580","0.0-25.0","stop_signal","","test","<div class = shapebox><img class = stim src = /static/experiments/stop_signal/images/tear.png></img></div>","77,90","850","90","high","10","<div class = stopbox><div class = centered-shape id = stop-signal></div><div class = centered-shape id = stop-signal-inner></div></div>","350","go","500","",""
"","-1","-1","500","0","fixation","poldrack-single-stim","157","319082","0.0-26.0","stop_signal","","test","<div class = centerbox><div class = fixation>+</div></div>","none","500","","","","","","","","",""
"","615","90","1850","0","stim","stop-signal","158","320935","0.0-27.0","stop_signal","","test","<div class = shapebox><img class = stim src = /static/experiments/stop_signal/images/tear.png></img></div>","77,90","850","90","high","11","<div class = stopbox><div class = centered-shape id = stop-signal></div><div class = centered-shape id = stop-signal-inner></div></div>","350","go","500","",""
"","-1","-1","500","0","fixation","poldrack-single-stim","159","321440","0.0-28.0","stop_signal","","test","<div class = centerbox><div class = fixation>+</div></div>","none","500","","","","","","","","",""
"","-1","-1","1850","0","stim","stop-signal","160","323300","0.0-29.0","stop_signal","","test","<div class = shapebox><img class = stim src = /static/experiments/stop_signal/images/tear.png></img></div>","77,90","850","90","high","12","<div class = stopbox><div class = centered-shape id = stop-signal></div><div class = centered-shape id = stop-signal-inner></div></div>","350","stop","500","",""
"","-1","-1","500","0","fixation","poldrack-single-stim","161","323806","0.0-30.0","stop_signal","","test","<div class = centerbox><div class = fixation>+</div></div>","none","500","","","","","","","","",""
"","587","77","1850","0","stim","stop-signal","162","325661","0.0-31.0","stop_signal","","test","<div class = shapebox><img class = stim src = /static/experiments/stop_signal/images/pentagon.png></img></div>","77,90","850","77","high","13","<div class = stopbox><div class = centered-shape id = stop-signal></div><div class = centered-shape id = stop-signal-inner></div></div>","400","stop","500","",""
"","-1","-1","500","0","fixation","poldrack-single-stim","163","326169","0.0-32.0","stop_signal","","test","<div class = centerbox><div class = fixation>+</div></div>","none","500","","","","","","","","",""
"","640","90","1850","0","stim","stop-signal","164","328024","0.0-33.0","stop_signal","","test","<div class = shapebox><img class = stim src = /static/experiments/stop_signal/images/square.png></img></div>","77,90","850","90","high","14","<div class = stopbox><div class = centered-shape id = stop-signal></div><div class = centered-shape id = stop-signal-inner></div></div>","350","stop","500","",""
"","-1","-1","500","0","fixation","poldrack-single-stim","165","328529","0.0-34.0","stop_signal","","test","<div class = centerbox><div class = fixation>+</div></div>","none","500","","","","","","","","",""
"","-1","-1","1850","0","stim","stop-signal","166","330390","0.0-35.0","stop_signal","","test","<div class = shapebox><img class = stim src = /static/experiments/stop_signal/images/square.png></img></div>","77,90","850","90","high","15","<div class = stopbox><div class = centered-shape id = stop-signal></div><div class = centered-shape id = stop-signal-inner></div></div>","300","stop","500","",""
"","-1","-1","500","0","fixation","poldrack-single-stim","167","330896","0.0-36.0","stop_signal","","test","<div class = centerbox><div class = fixation>+</div></div>","none","500","","","","","","","","",""
"","-1","-1","1850","0","stim","stop-signal","168","332758","0.0-37.0","stop_signal","","test","<div class = shapebox><img class = stim src = /static/experiments/stop_signal/images/pentagon.png></img></div>","77,90","850","77","high","16","<div class = stopbox><div class = centered-shape id = stop-signal></div><div class = centered-shape id = stop-signal-inner></div></div>","350","stop","500","",""
"","-1","-1","500","0","fixation","poldrack-single-stim","169","333264","0.0-38.0","stop_signal","","test","<div class = centerbox><div class = fixation>+</div></div>","none","500","","","","","","","","",""
"","586","90","1850","0","stim","stop-signal","170","335127","0.0-39.0","stop_signal","","test","<div class = shapebox><img class = stim src = /static/experiments/stop_signal/images/square.png></img></div>","77,90","850","90","high","17","<div class = stopbox><div class = centered-shape id = stop-signal></div><div class = centered-shape id = stop-signal-inner></div></div>","400","go","500","",""
"","-1","-1","500","0","fixation","poldrack-single-stim","171","335632","0.0-40.0","stop_signal","","test","<div class = centerbox><div class = fixation>+</div></div>","none","500","","","","","","","","",""
"","842","77","1850","0","stim","stop-signal","172","337495","0.0-41.0","stop_signal","","test","<div class = shapebox><img class = stim src = /static/experiments/stop_signal/images/pentagon.png></img></div>","77,90","850","77","high","18","<div class = stopbox><div class = centered-shape id = stop-signal></div><div class = centered-shape id = stop-signal-inner></div></div>","400","go","500","",""
"","-1","-1","500","0","fixation","poldrack-single-stim","173","338001","0.0-42.0","stop_signal","","test","<div class = centerbox><div class = fixation>+</div></div>","none","500","","","","","","","","",""
"","433","77","1850","0","stim","stop-signal","174","339864","0.0-43.0","stop_signal","","test","<div class = shapebox><img class = stim src = /static/experiments/stop_signal/images/pentagon.png></img></div>","77,90","850","77","high","19","<div class = stopbox><div class = centered-shape id = stop-signal></div><div class = centered-shape id = stop-signal-inner></div></div>","400","go","500","",""
"","-1","-1","500","0","fixation","poldrack-single-stim","175","340371","0.0-44.0","stop_signal","","test","<div class = centerbox><div class = fixation>+</div></div>","none","500","","","","","","","","",""
"","-1","-1","1850","0","stim","stop-signal","176","342224","0.0-45.0","stop_signal","","test","<div class = shapebox><img class = stim src = /static/experiments/stop_signal/images/pentagon.png></img></div>","77,90","850","77","high","20","<div class = stopbox><div class = centered-shape id = stop-signal></div><div class = centered-shape id = stop-signal-inner></div></div>","400","stop","500","",""
"","-1","-1","500","0","fixation","poldrack-single-stim","177","342733","0.0-46.0","stop_signal","","test","<div class = centerbox><div class = fixation>+</div></div>","none","500","","","","","","","","",""
"","678","77","1850","0","stim","stop-signal","178","344594","0.0-47.0","stop_signal","","test","<div class = shapebox><img class = stim src = /static/experiments/stop_signal/images/hourglass.png></img></div>","77,90","850","77","high","21","<div class = stopbox><div class = centered-shape id = stop-signal></div><div class = centered-shape id = stop-signal-inner></div></div>","450","stop","500","",""
"","-1","-1","500","0","fixation","poldrack-single-stim","179","345101","0.0-48.0","stop_signal","","test","<div class = centerbox><div class = fixation>+</div></div>","none","500","","","","","","","","",""
"","725","90","1850","0","stim","stop-signal","180","346960","0.0-49.0","stop_signal","","test","<div class = shapebox><img class = stim src = /static/experiments/stop_signal/images/square.png></img></div>","77,90","850","90","high","22","<div class = stopbox><div class = centered-shape id = stop-signal></div><div class = centered-shape id = stop-signal-inner></div></div>","400","stop","500","",""
"","-1","-1","500","0","fixation","poldrack-single-stim","181","347470","0.0-50.0","stop_signal","","test","<div class = centerbox><div class = fixation>+</div></div>","none","500","","","","","","","","",""
"","804","90","1850","0","stim","stop-signal","182","349325","0.0-51.0","stop_signal","","test","<div class = shapebox><img class = stim src = /static/experiments/stop_signal/images/tear.png></img></div>","77,90","850","90","high","23","<div class = stopbox><div class = centered-shape id = stop-signal></div><div class = centered-shape id = stop-signal-inner></div></div>","350","go","500","",""
"","-1","-1","500","0","fixation","poldrack-single-stim","183","349838","0.0-52.0","stop_signal","","test","<div class = centerbox><div class = fixation>+</div></div>","none","500","","","","","","","","",""
"","756","90","1850","0","stim","stop-signal","184","351694","0.0-53.0","stop_signal","","test","<div class = shapebox><img class = stim src = /static/experiments/stop_signal/images/tear.png></img></div>","77,90","850","90","high","24","<div class = stopbox><div class = centered-shape id = stop-signal></div><div class = centered-shape id = stop-signal-inner></div></div>","350","go","500","",""
"","-1","-1","500","0","fixation","poldrack-single-stim","185","352206","0.0-54.0","stop_signal","","test","<div class = centerbox><div class = fixation>+</div></div>","none","500","","","","","","","","",""
"","-1","-1","1850","0","stim","stop-signal","186","354059","0.0-55.0","stop_signal","","test","<div class = shapebox><img class = stim src = /static/experiments/stop_signal/images/hourglass.png></img></div>","77,90","850","77","high","25","<div class = stopbox><div class = centered-shape id = stop-signal></div><div class = centered-shape id = stop-signal-inner></div></div>","350","stop","500","",""
"","-1","-1","500","0","fixation","poldrack-single-stim","187","354561","0.0-56.0","stop_signal","","test","<div class = centerbox><div class = fixation>+</div></div>","none","500","","","","","","","","",""
"","777","90","1850","0","stim","stop-signal","188","356414","0.0-57.0","stop_signal","","test","<div class = shapebox><img class = stim src = /static/experiments/stop_signal/images/square.png></img></div>","77,90","850","90","high","26","<div class = stopbox><div class = centered-shape id = stop-signal></div><div class = centered-shape id = stop-signal-inner></div></div>","400","go","500","",""
"","-1","-1","500","0","fixation","poldrack-single-stim","189","356921","0.0-58.0","stop_signal","","test","<div class = centerbox><div class = fixation>+</div></div>","none","500","","","","","","","","",""
"","729","77","1850","0","stim","stop-signal","190","358779","0.0-59.0","stop_signal","","test","<div class = shapebox><img class = stim src = /static/experiments/stop_signal/images/hourglass.png></img></div>","77,90","850","77","high","27","<div class = stopbox><div class = centered-shape id = stop-signal></div><div class = centered-shape id = stop-signal-inner></div></div>","400","go","500","",""
"","-1","-1","500","0","fixation","poldrack-single-stim","191","359287","0.0-60.0","stop_signal","","test","<div class = centerbox><div class = fixation>+</div></div>","none","500","","","","","","","","",""
"","779","90","1850","0","stim","stop-signal","192","361147","0.0-61.0","stop_signal","","test","<div class = shapebox><img class = stim src = /static/experiments/stop_signal/images/tear.png></img></div>","77,90","850","90","high","28","<div class = stopbox><div class = centered-shape id = stop-signal></div><div class = centered-shape id = stop-signal-inner></div></div>","400","stop","500","",""
"","-1","-1","500","0","fixation","poldrack-single-stim","193","361650","0.0-62.0","stop_signal","","test","<div class = centerbox><div class = fixation>+</div></div>","none","500","","","","","","","","",""
"","696","77","1850","0","stim","stop-signal","194","363503","0.0-63.0","stop_signal","","test","<div class = shapebox><img class = stim src = /static/experiments/stop_signal/images/hourglass.png></img></div>","77,90","850","77","high","29","<div class = stopbox><div class = centered-shape id = stop-signal></div><div class = centered-shape id = stop-signal-inner></div></div>","350","go","500","",""
"","-1","-1","500","0","fixation","poldrack-single-stim","195","364016","0.0-64.0","stop_signal","","test","<div class = centerbox><div class = fixation>+</div></div>","none","500","","","","","","","","",""
"","858","77","1850","0","stim","stop-signal","196","365877","0.0-65.0","stop_signal","","test","<div class = shapebox><img class = stim src = /static/experiments/stop_signal/images/pentagon.png></img></div>","77,90","850","77","high","30","<div class = stopbox><div class = centered-shape id = stop-signal></div><div class = centered-shape id = stop-signal-inner></div></div>","350","go","500","",""
"","-1","-1","500","0","fixation","poldrack-single-stim","197","366385","0.0-66.0","stop_signal","","test","<div class = centerbox><div class = fixation>+</div></div>","none","500","","","","","","","","",""
"","650","90","1850","0","stim","stop-signal","198","368236","0.0-67.0","stop_signal","","test","<div class = shapebox><img class = stim src = /static/experiments/stop_signal/images/square.png></img></div>","77,90","850","90","high","31","<div class = stopbox><div class = centered-shape id = stop-signal></div><div class = centered-shape id = stop-signal-inner></div></div>","350","go","500","",""
"","-1","-1","500","0","fixation","poldrack-single-stim","199","368742","0.0-68.0","stop_signal","","test","<div class = centerbox><div class = fixation>+</div></div>","none","500","","","","","","","","",""
"","-1","-1","1850","0","stim","stop-signal","200","370605","0.0-69.0","stop_signal","","test","<div class = shapebox><img class = stim src = /static/experiments/stop_signal/images/pentagon.png></img></div>","77,90","850","77","high","32","<div class = stopbox><div class = centered-shape id = stop-signal></div><div class = centered-shape id = stop-signal-inner></div></div>","350","stop","500","",""
"","-1","-1","500","0","fixation","poldrack-single-stim","201","371107","0.0-70.0","stop_signal","","test","<div class = centerbox><div class = fixation>+</div></div>","none","500","","","","","","","","",""
"","583","90","1850","0","stim","stop-signal","202","372964","0.0-71.0","stop_signal","","test","<div class = shapebox><img class = stim src = /static/experiments/stop_signal/images/square.png></img></div>","77,90","850","90","high","33","<div class = stopbox><div class = centered-shape id = stop-signal></div><div class = centered-shape id = stop-signal-inner></div></div>","400","stop","500","",""
"","-1","-1","500","0","fixation","poldrack-single-stim","203","373474","0.0-72.0","stop_signal","","test","<div class = centerbox><div class = fixation>+</div></div>","none","500","","","","","","","","",""
"","-1","-1","1850","0","stim","stop-signal","204","375329","0.0-73.0","stop_signal","","test","<div class = shapebox><img class = stim src = /static/experiments/stop_signal/images/tear.png></img></div>","77,90","850","90","high","34","<div class = stopbox><div class = centered-shape id = stop-signal></div><div class = centered-shape id = stop-signal-inner></div></div>","350","stop","500","",""
"","-1","-1","500","0","fixation","poldrack-single-stim","205","375831","0.0-74.0","stop_signal","","test","<div class = centerbox><div class = fixation>+</div></div>","none","500","","","","","","","","",""
"","691","90","1850","0","stim","stop-signal","206","377694","0.0-75.0","stop_signal","","test","<div class = shapebox><img class = stim src = /static/experiments/stop_signal/images/square.png></img></div>","77,90","850","90","high","35","<div class = stopbox><div class = centered-shape id = stop-signal></div><div class = centered-shape id = stop-signal-inner></div></div>","400","go","500","",""
"","-1","-1","500","0","fixation","poldrack-single-stim","207","378199","0.0-76.0","stop_signal","","test","<div class = centerbox><div class = fixation>+</div></div>","none","500","","","","","","","","",""
"","747","90","1850","0","stim","stop-signal","208","380062","0.0-77.0","stop_signal","","test","<div class = shapebox><img class = stim src = /static/experiments/stop_signal/images/tear.png></img></div>","77,90","850","90","high","36","<div class = stopbox><div class = centered-shape id = stop-signal></div><div class = centered-shape id = stop-signal-inner></div></div>","400","go","500","",""
"","-1","-1","500","0","fixation","poldrack-single-stim","209","380568","0.0-78.0","stop_signal","","test","<div class = centerbox><div class = fixation>+</div></div>","none","500","","","","","","","","",""
"","938","90","1850","0","stim","stop-signal","210","382431","0.0-79.0","stop_signal","","test","<div class = shapebox><img class = stim src = /static/experiments/stop_signal/images/square.png></img></div>","77,90","850","90","high","37","<div class = stopbox><div class = centered-shape id = stop-signal></div><div class = centered-shape id = stop-signal-inner></div></div>","400","go","500","",""
"","-1","-1","500","0","fixation","poldrack-single-stim","211","382936","0.0-80.0","stop_signal","","test","<div class = centerbox><div class = fixation>+</div></div>","none","500","","","","","","","","",""
"","658","90","1850","0","stim","stop-signal","212","384799","0.0-81.0","stop_signal","","test","<div class = shapebox><img class = stim src = /static/experiments/stop_signal/images/tear.png></img></div>","77,90","850","90","high","38","<div class = stopbox><div class = centered-shape id = stop-signal></div><div class = centered-shape id = stop-signal-inner></div></div>","400","go","500","",""
"","-1","-1","500","0","fixation","poldrack-single-stim","213","385305","0.0-82.0","stop_signal","","test","<div class = centerbox><div class = fixation>+</div></div>","none","500","","","","","","","","",""
"","601","90","1850","0","stim","stop-signal","214","387167","0.0-83.0","stop_signal","","test","<div class = shapebox><img class = stim src = /static/experiments/stop_signal/images/hourglass.png></img></div>","77,90","850","77","high","39","<div class = stopbox><div class = centered-shape id = stop-signal></div><div class = centered-shape id = stop-signal-inner></div></div>","400","go","500","",""
"","-1","-1","500","0","fixation","poldrack-single-stim","215","387676","0.0-84.0","stop_signal","","test","<div class = centerbox><div class = fixation>+</div></div>","none","500","","","","","","","","",""
"","586","77","1850","0","stim","stop-signal","216","389524","0.0-85.0","stop_signal","","test","<div class = shapebox><img class = stim src = /static/experiments/stop_signal/images/hourglass.png></img></div>","77,90","850","77","high","40","<div class = stopbox><div class = centered-shape id = stop-signal></div><div class = centered-shape id = stop-signal-inner></div></div>","400","go","500","",""
"","-1","-1","500","0","fixation","poldrack-single-stim","217","390030","0.0-86.0","stop_signal","","test","<div class = centerbox><div class = fixation>+</div></div>","none","500","","","","","","","","",""
"","663","90","1850","0","stim","stop-signal","218","391892","0.0-87.0","stop_signal","","test","<div class = shapebox><img class = stim src = /static/experiments/stop_signal/images/square.png></img></div>","77,90","850","90","high","41","<div class = stopbox><div class = centered-shape id = stop-signal></div><div class = centered-shape id = stop-signal-inner></div></div>","400","go","500","",""
"","-1","-1","500","0","fixation","poldrack-single-stim","219","392398","0.0-88.0","stop_signal","","test","<div class = centerbox><div class = fixation>+</div></div>","none","500","","","","","","","","",""
"","767","90","1850","0","stim","stop-signal","220","394261","0.0-89.0","stop_signal","","test","<div class = shapebox><img class = stim src = /static/experiments/stop_signal/images/tear.png></img></div>","77,90","850","90","high","42","<div class = stopbox><div class = centered-shape id = stop-signal></div><div class = centered-shape id = stop-signal-inner></div></div>","400","go","500","",""
"","-1","-1","500","0","fixation","poldrack-single-stim","221","394764","0.0-90.0","stop_signal","","test","<div class = centerbox><div class = fixation>+</div></div>","none","500","","","","","","","","",""
"","-1","-1","1850","0","stim","stop-signal","222","396620","0.0-91.0","stop_signal","","test","<div class = shapebox><img class = stim src = /static/experiments/stop_signal/images/tear.png></img></div>","77,90","850","90","high","43","<div class = stopbox><div class = centered-shape id = stop-signal></div><div class = centered-shape id = stop-signal-inner></div></div>","400","stop","500","",""
"","-1","-1","500","0","fixation","poldrack-single-stim","223","397130","0.0-92.0","stop_signal","","test","<div class = centerbox><div class = fixation>+</div></div>","none","500","","","","","","","","",""
"","781","77","1850","0","stim","stop-signal","224","398985","0.0-93.0","stop_signal","","test","<div class = shapebox><img class = stim src = /static/experiments/stop_signal/images/hourglass.png></img></div>","77,90","850","77","high","44","<div class = stopbox><div class = centered-shape id = stop-signal></div><div class = centered-shape id = stop-signal-inner></div></div>","450","go","500","",""
"","-1","-1","500","0","fixation","poldrack-single-stim","225","399488","0.0-94.0","stop_signal","","test","<div class = centerbox><div class = fixation>+</div></div>","none","500","","","","","","","","",""
"","758","77","1850","0","stim","stop-signal","226","401343","0.0-95.0","stop_signal","","test","<div class = shapebox><img class = stim src = /static/experiments/stop_signal/images/pentagon.png></img></div>","77,90","850","77","high","45","<div class = stopbox><div class = centered-shape id = stop-signal></div><div class = centered-shape id = stop-signal-inner></div></div>","450","stop","500","",""
"","-1","-1","500","0","fixation","poldrack-single-stim","227","401850","0.0-96.0","stop_signal","","test","<div class = centerbox><div class = fixation>+</div></div>","none","500","","","","","","","","",""
"","723","77","1850","0","stim","stop-signal","228","403710","0.0-97.0","stop_signal","","test","<div class = shapebox><img class = stim src = /static/experiments/stop_signal/images/pentagon.png></img></div>","77,90","850","77","high","46","<div class = stopbox><div class = centered-shape id = stop-signal></div><div class = centered-shape id = stop-signal-inner></div></div>","400","go","500","",""
"","-1","-1","500","0","fixation","poldrack-single-stim","229","404219","0.0-98.0","stop_signal","","test","<div class = centerbox><div class = fixation>+</div></div>","none","500","","","","","","","","",""
"","-1","-1","1850","0","stim","stop-signal","230","406070","0.0-99.0","stop_signal","","test","<div class = shapebox><img class = stim src = /static/experiments/stop_signal/images/hourglass.png></img></div>","77,90","850","77","high","47","<div class = stopbox><div class = centered-shape id = stop-signal></div><div class = centered-shape id = stop-signal-inner></div></div>","400","go","500","",""
"","-1","-1","500","0","fixation","poldrack-single-stim","231","406577","0.0-100.0","stop_signal","","test","<div class = centerbox><div class = fixation>+</div></div>","none","500","","","","","","","","",""
"","-1","-1","1850","0","stim","stop-signal","232","408430","0.0-101.0","stop_signal","","test","<div class = shapebox><img class = stim src = /static/experiments/stop_signal/images/pentagon.png></img></div>","77,90","850","77","high","48","<div class = stopbox><div class = centered-shape id = stop-signal></div><div class = centered-shape id = stop-signal-inner></div></div>","400","stop","500","",""
"","-1","-1","500","0","fixation","poldrack-single-stim","233","408939","0.0-102.0","stop_signal","","test","<div class = centerbox><div class = fixation>+</div></div>","none","500","","","","","","","","",""
"","546","77","1850","0","stim","stop-signal","234","410794","0.0-103.0","stop_signal","","test","<div class = shapebox><img class = stim src = /static/experiments/stop_signal/images/hourglass.png></img></div>","77,90","850","77","high","49","<div class = stopbox><div class = centered-shape id = stop-signal></div><div class = centered-shape id = stop-signal-inner></div></div>","450","go","500","",""
"<div class = centerbox><p class = block-text><br>Done with a test block. Please take this time to read your feedback and to take a short break! Press <strong>enter</strong> to continue after you have read the feedback.</p><p class = block-text><strong>Average reaction time:  729 ms. Accuracy for non-star trials: 87%</strong></p><p class = block-text><strong>Remember, do not slow your responses to the shape to see if a star will appear before you respond.  Please respond to each shape as quickly and as accurately as possible.</strong></p></div>","29083","13","29083","1000","feedback","poldrack-text","235","439935","0.0-105.0","stop_signal","","test","","","","","","","","","","","",""
"","-1","-1","500","0","fixation","poldrack-single-stim","236","441448","0.0-106.0","stop_signal","","test","<div class = centerbox><div class = fixation>+</div></div>","none","500","","","","","","","","",""
"","629","77","1850","0","stim","stop-signal","237","443302","0.0-107.0","stop_signal","","test","<div class = shapebox><img class = stim src = /static/experiments/stop_signal/images/pentagon.png></img></div>","77,90","850","77","high","50","<div class = stopbox><div class = centered-shape id = stop-signal></div><div class = centered-shape id = stop-signal-inner></div></div>","450","go","500","",""
"","-1","-1","500","0","fixation","poldrack-single-stim","238","443815","0.0-108.0","stop_signal","","test","<div class = centerbox><div class = fixation>+</div></div>","none","500","","","","","","","","",""
"","574","90","1850","0","stim","stop-signal","239","445668","0.0-109.0","stop_signal","","test","<div class = shapebox><img class = stim src = /static/experiments/stop_signal/images/square.png></img></div>","77,90","850","90","high","51","<div class = stopbox><div class = centered-shape id = stop-signal></div><div class = centered-shape id = stop-signal-inner></div></div>","450","go","500","",""
"","-1","-1","500","0","fixation","poldrack-single-stim","240","446181","0.0-110.0","stop_signal","","test","<div class = centerbox><div class = fixation>+</div></div>","none","500","","","","","","","","",""
"","472","90","1850","0","stim","stop-signal","241","448037","0.0-111.0","stop_signal","","test","<div class = shapebox><img class = stim src = /static/experiments/stop_signal/images/pentagon.png></img></div>","77,90","850","77","high","52","<div class = stopbox><div class = centered-shape id = stop-signal></div><div class = centered-shape id = stop-signal-inner></div></div>","450","go","500","",""
"","-1","-1","500","0","fixation","poldrack-single-stim","242","448549","0.0-112.0","stop_signal","","test","<div class = centerbox><div class = fixation>+</div></div>","none","500","","","","","","","","",""
"","487","90","1850","0","stim","stop-signal","243","450412","0.0-113.0","stop_signal","","test","<div class = shapebox><img class = stim src = /static/experiments/stop_signal/images/pentagon.png></img></div>","77,90","850","77","high","53","<div class = stopbox><div class = centered-shape id = stop-signal></div><div class = centered-shape id = stop-signal-inner></div></div>","450","go","500","",""
"","-1","-1","500","0","fixation","poldrack-single-stim","244","450929","0.0-114.0","stop_signal","","test","<div class = centerbox><div class = fixation>+</div></div>","none","500","","","","","","","","",""
"","635","90","1850","0","stim","stop-signal","245","452789","0.0-115.0","stop_signal","","test","<div class = shapebox><img class = stim src = /static/experiments/stop_signal/images/tear.png></img></div>","77,90","850","90","high","54","<div class = stopbox><div class = centered-shape id = stop-signal></div><div class = centered-shape id = stop-signal-inner></div></div>","450","stop","500","",""
"","-1","-1","500","0","fixation","poldrack-single-stim","246","453297","0.0-116.0","stop_signal","","test","<div class = centerbox><div class = fixation>+</div></div>","none","500","","","","","","","","",""
"","395","77","1850","0","stim","stop-signal","247","455151","0.0-117.0","stop_signal","","test","<div class = shapebox><img class = stim src = /static/experiments/stop_signal/images/pentagon.png></img></div>","77,90","850","77","high","55","<div class = stopbox><div class = centered-shape id = stop-signal></div><div class = centered-shape id = stop-signal-inner></div></div>","400","go","500","",""
"","-1","-1","500","0","fixation","poldrack-single-stim","248","455653","0.0-118.0","stop_signal","","test","<div class = centerbox><div class = fixation>+</div></div>","none","500","","","","","","","","",""
"","630","90","1850","0","stim","stop-signal","249","457507","0.0-119.0","stop_signal","","test","<div class = shapebox><img class = stim src = /static/experiments/stop_signal/images/tear.png></img></div>","77,90","850","90","high","56","<div class = stopbox><div class = centered-shape id = stop-signal></div><div class = centered-shape id = stop-signal-inner></div></div>","400","stop","500","",""
"","-1","-1","500","0","fixation","poldrack-single-stim","250","458018","0.0-120.0","stop_signal","","test","<div class = centerbox><div class = fixation>+</div></div>","none","500","","","","","","","","",""
"","490","77","1850","0","stim","stop-signal","251","459872","0.0-121.0","stop_signal","","test","<div class = shapebox><img class = stim src = /static/experiments/stop_signal/images/square.png></img></div>","77,90","850","90","high","57","<div class = stopbox><div class = centered-shape id = stop-signal></div><div class = centered-shape id = stop-signal-inner></div></div>","350","stop","500","",""
"","-1","-1","500","0","fixation","poldrack-single-stim","252","460375","0.0-122.0","stop_signal","","test","<div class = centerbox><div class = fixation>+</div></div>","none","500","","","","","","","","",""
"","701","90","1850","0","stim","stop-signal","253","462237","0.0-123.0","stop_signal","","test","<div class = shapebox><img class = stim src = /static/experiments/stop_signal/images/tear.png></img></div>","77,90","850","90","high","58","<div class = stopbox><div class = centered-shape id = stop-signal></div><div class = centered-shape id = stop-signal-inner></div></div>","300","go","500","",""
"","-1","-1","500","0","fixation","poldrack-single-stim","254","462742","0.0-124.0","stop_signal","","test","<div class = centerbox><div class = fixation>+</div></div>","none","500","","","","","","","","",""
"","629","77","1850","0","stim","stop-signal","255","464606","0.0-125.0","stop_signal","","test","<div class = shapebox><img class = stim src = /static/experiments/stop_signal/images/hourglass.png></img></div>","77,90","850","77","high","59","<div class = stopbox><div class = centered-shape id = stop-signal></div><div class = centered-shape id = stop-signal-inner></div></div>","300","go","500","",""
"","-1","-1","500","0","fixation","poldrack-single-stim","256","465112","0.0-126.0","stop_signal","","test","<div class = centerbox><div class = fixation>+</div></div>","none","500","","","","","","","","",""
"","516","90","1850","0","stim","stop-signal","257","466975","0.0-127.0","stop_signal","","test","<div class = shapebox><img class = stim src = /static/experiments/stop_signal/images/pentagon.png></img></div>","77,90","850","77","high","60","<div class = stopbox><div class = centered-shape id = stop-signal></div><div class = centered-shape id = stop-signal-inner></div></div>","300","stop","500","",""
"","-1","-1","500","0","fixation","poldrack-single-stim","258","467479","0.0-128.0","stop_signal","","test","<div class = centerbox><div class = fixation>+</div></div>","none","500","","","","","","","","",""
"","405","90","1850","0","stim","stop-signal","259","469337","0.0-129.0","stop_signal","","test","<div class = shapebox><img class = stim src = /static/experiments/stop_signal/images/tear.png></img></div>","77,90","850","90","high","61","<div class = stopbox><div class = centered-shape id = stop-signal></div><div class = centered-shape id = stop-signal-inner></div></div>","250","stop","500","",""
"","-1","-1","500","0","fixation","poldrack-single-stim","260","469843","0.0-130.0","stop_signal","","test","<div class = centerbox><div class = fixation>+</div></div>","none","500","","","","","","","","",""
"","601","90","1850","0","stim","stop-signal","261","471695","0.0-131.0","stop_signal","","test","<div class = shapebox><img class = stim src = /static/experiments/stop_signal/images/tear.png></img></div>","77,90","850","90","high","62","<div class = stopbox><div class = centered-shape id = stop-signal></div><div class = centered-shape id = stop-signal-inner></div></div>","200","stop","500","",""
"","-1","-1","500","0","fixation","poldrack-single-stim","262","472198","0.0-132.0","stop_signal","","test","<div class = centerbox><div class = fixation>+</div></div>","none","500","","","","","","","","",""
"","549","90","1850","0","stim","stop-signal","263","474049","0.0-133.0","stop_signal","","test","<div class = shapebox><img class = stim src = /static/experiments/stop_signal/images/tear.png></img></div>","77,90","850","90","high","63","<div class = stopbox><div class = centered-shape id = stop-signal></div><div class = centered-shape id = stop-signal-inner></div></div>","150","go","500","",""
"","-1","-1","500","0","fixation","poldrack-single-stim","264","474564","0.0-134.0","stop_signal","","test","<div class = centerbox><div class = fixation>+</div></div>","none","500","","","","","","","","",""
"","-1","-1","1850","0","stim","stop-signal","265","476416","0.0-135.0","stop_signal","","test","<div class = shapebox><img class = stim src = /static/experiments/stop_signal/images/square.png></img></div>","77,90","850","90","high","64","<div class = stopbox><div class = centered-shape id = stop-signal></div><div class = centered-shape id = stop-signal-inner></div></div>","150","stop","500","",""
"","-1","-1","500","0","fixation","poldrack-single-stim","266","476919","0.0-136.0","stop_signal","","test","<div class = centerbox><div class = fixation>+</div></div>","none","500","","","","","","","","",""
"","477","77","1850","0","stim","stop-signal","267","478774","0.0-137.0","stop_signal","","test","<div class = shapebox><img class = stim src = /static/experiments/stop_signal/images/hourglass.png></img></div>","77,90","850","77","high","65","<div class = stopbox><div class = centered-shape id = stop-signal></div><div class = centered-shape id = stop-signal-inner></div></div>","200","go","500","",""
"","-1","-1","500","0","fixation","poldrack-single-stim","268","479284","0.0-138.0","stop_signal","","test","<div class = centerbox><div class = fixation>+</div></div>","none","500","","","","","","","","",""
"","440","77","1850","0","stim","stop-signal","269","481140","0.0-139.0","stop_signal","","test","<div class = shapebox><img class = stim src = /static/experiments/stop_signal/images/hourglass.png></img></div>","77,90","850","77","high","66","<div class = stopbox><div class = centered-shape id = stop-signal></div><div class = centered-shape id = stop-signal-inner></div></div>","200","go","500","",""
"","-1","-1","500","0","fixation","poldrack-single-stim","270","481653","0.0-140.0","stop_signal","","test","<div class = centerbox><div class = fixation>+</div></div>","none","500","","","","","","","","",""
"","-1","-1","1850","0","stim","stop-signal","271","483507","0.0-141.0","stop_signal","","test","<div class = shapebox><img class = stim src = /static/experiments/stop_signal/images/pentagon.png></img></div>","77,90","850","77","high","67","<div class = stopbox><div class = centered-shape id = stop-signal></div><div class = centered-shape id = stop-signal-inner></div></div>","200","stop","500","",""
"","-1","-1","500","0","fixation","poldrack-single-stim","272","484009","0.0-142.0","stop_signal","","test","<div class = centerbox><div class = fixation>+</div></div>","none","500","","","","","","","","",""
"","723","90","1850","0","stim","stop-signal","273","485873","0.0-143.0","stop_signal","","test","<div class = shapebox><img class = stim src = /static/experiments/stop_signal/images/pentagon.png></img></div>","77,90","850","77","high","68","<div class = stopbox><div class = centered-shape id = stop-signal></div><div class = centered-shape id = stop-signal-inner></div></div>","250","go","500","",""
"","-1","-1","500","0","fixation","poldrack-single-stim","274","486390","0.0-144.0","stop_signal","","test","<div class = centerbox><div class = fixation>+</div></div>","none","500","","","","","","","","",""
"","598","77","1850","0","stim","stop-signal","275","488244","0.0-145.0","stop_signal","","test","<div class = shapebox><img class = stim src = /static/experiments/stop_signal/images/pentagon.png></img></div>","77,90","850","77","high","69","<div class = stopbox><div class = centered-shape id = stop-signal></div><div class = centered-shape id = stop-signal-inner></div></div>","250","go","500","",""
"","-1","-1","500","0","fixation","poldrack-single-stim","276","488746","0.0-146.0","stop_signal","","test","<div class = centerbox><div class = fixation>+</div></div>","none","500","","","","","","","","",""
"","634","90","1850","0","stim","stop-signal","277","490612","0.0-147.0","stop_signal","","test","<div class = shapebox><img class = stim src = /static/experiments/stop_signal/images/tear.png></img></div>","77,90","850","90","high","70","<div class = stopbox><div class = centered-shape id = stop-signal></div><div class = centered-shape id = stop-signal-inner></div></div>","250","go","500","",""
"","-1","-1","500","0","fixation","poldrack-single-stim","278","491115","0.0-148.0","stop_signal","","test","<div class = centerbox><div class = fixation>+</div></div>","none","500","","","","","","","","",""
"","-1","-1","1850","0","stim","stop-signal","279","492979","0.0-149.0","stop_signal","","test","<div class = shapebox><img class = stim src = /static/experiments/stop_signal/images/square.png></img></div>","77,90","850","90","high","71","<div class = stopbox><div class = centered-shape id = stop-signal></div><div class = centered-shape id = stop-signal-inner></div></div>","250","stop","500","",""
"","-1","-1","500","0","fixation","poldrack-single-stim","280","493483","0.0-150.0","stop_signal","","test","<div class = centerbox><div class = fixation>+</div></div>","none","500","","","","","","","","",""
"","601","90","1850","0","stim","stop-signal","281","495347","0.0-151.0","stop_signal","","test","<div class = shapebox><img class = stim src = /static/experiments/stop_signal/images/tear.png></img></div>","77,90","850","90","high","72","<div class = stopbox><div class = centered-shape id = stop-signal></div><div class = centered-shape id = stop-signal-inner></div></div>","300","go","500","",""
"","-1","-1","500","0","fixation","poldrack-single-stim","282","495862","0.0-152.0","stop_signal","","test","<div class = centerbox><div class = fixation>+</div></div>","none","500","","","","","","","","",""
"","598","90","1850","0","stim","stop-signal","283","497716","0.0-153.0","stop_signal","","test","<div class = shapebox><img class = stim src = /static/experiments/stop_signal/images/tear.png></img></div>","77,90","850","90","high","73","<div class = stopbox><div class = centered-shape id = stop-signal></div><div class = centered-shape id = stop-signal-inner></div></div>","300","stop","500","",""
"","-1","-1","500","0","fixation","poldrack-single-stim","284","498220","0.0-154.0","stop_signal","","test","<div class = centerbox><div class = fixation>+</div></div>","none","500","","","","","","","","",""
"","559","77","1850","0","stim","stop-signal","285","500084","0.0-155.0","stop_signal","","test","<div class = shapebox><img class = stim src = /static/experiments/stop_signal/images/hourglass.png></img></div>","77,90","850","77","high","74","<div class = stopbox><div class = centered-shape id = stop-signal></div><div class = centered-shape id = stop-signal-inner></div></div>","250","stop","500","",""
"","-1","-1","500","0","fixation","poldrack-single-stim","286","500587","0.0-156.0","stop_signal","","test","<div class = centerbox><div class = fixation>+</div></div>","none","500","","","","","","","","",""
"","521","90","1850","0","stim","stop-signal","287","502453","0.0-157.0","stop_signal","","test","<div class = shapebox><img class = stim src = /static/experiments/stop_signal/images/hourglass.png></img></div>","77,90","850","77","high","75","<div class = stopbox><div class = centered-shape id = stop-signal></div><div class = centered-shape id = stop-signal-inner></div></div>","200","go","500","",""
"","-1","-1","500","0","fixation","poldrack-single-stim","288","502957","0.0-158.0","stop_signal","","test","<div class = centerbox><div class = fixation>+</div></div>","none","500","","","","","","","","",""
"","-1","-1","1850","0","stim","stop-signal","289","504821","0.0-159.0","stop_signal","","test","<div class = shapebox><img class = stim src = /static/experiments/stop_signal/images/hourglass.png></img></div>","77,90","850","77","high","76","<div class = stopbox><div class = centered-shape id = stop-signal></div><div class = centered-shape id = stop-signal-inner></div></div>","200","stop","500","",""
"","-1","-1","500","0","fixation","poldrack-single-stim","290","505325","0.0-160.0","stop_signal","","test","<div class = centerbox><div class = fixation>+</div></div>","none","500","","","","","","","","",""
"","584","77","1850","0","stim","stop-signal","291","507189","0.0-161.0","stop_signal","","test","<div class = shapebox><img class = stim src = /static/experiments/stop_signal/images/hourglass.png></img></div>","77,90","850","77","high","77","<div class = stopbox><div class = centered-shape id = stop-signal></div><div class = centered-shape id = stop-signal-inner></div></div>","250","go","500","",""
"","-1","-1","500","0","fixation","poldrack-single-stim","292","507697","0.0-162.0","stop_signal","","test","<div class = centerbox><div class = fixation>+</div></div>","none","500","","","","","","","","",""
"","691","90","1850","0","stim","stop-signal","293","509550","0.0-163.0","stop_signal","","test","<div class = shapebox><img class = stim src = /static/experiments/stop_signal/images/square.png></img></div>","77,90","850","90","high","78","<div class = stopbox><div class = centered-shape id = stop-signal></div><div class = centered-shape id = stop-signal-inner></div></div>","250","go","500","",""
"","-1","-1","500","0","fixation","poldrack-single-stim","294","510062","0.0-164.0","stop_signal","","test","<div class = centerbox><div class = fixation>+</div></div>","none","500","","","","","","","","",""
"","430","90","1850","0","stim","stop-signal","295","511919","0.0-165.0","stop_signal","","test","<div class = shapebox><img class = stim src = /static/experiments/stop_signal/images/tear.png></img></div>","77,90","850","90","high","79","<div class = stopbox><div class = centered-shape id = stop-signal></div><div class = centered-shape id = stop-signal-inner></div></div>","250","go","500","",""
"","-1","-1","500","0","fixation","poldrack-single-stim","296","512426","0.0-166.0","stop_signal","","test","<div class = centerbox><div class = fixation>+</div></div>","none","500","","","","","","","","",""
"","-1","-1","1850","0","stim","stop-signal","297","514288","0.0-167.0","stop_signal","","test","<div class = shapebox><img class = stim src = /static/experiments/stop_signal/images/pentagon.png></img></div>","77,90","850","77","high","80","<div class = stopbox><div class = centered-shape id = stop-signal></div><div class = centered-shape id = stop-signal-inner></div></div>","250","stop","500","",""
"","-1","-1","500","0","fixation","poldrack-single-stim","298","514805","0.0-168.0","stop_signal","","test","<div class = centerbox><div class = fixation>+</div></div>","none","500","","","","","","","","",""
"","432","90","1850","0","stim","stop-signal","299","516659","0.0-169.0","stop_signal","","test","<div class = shapebox><img class = stim src = /static/experiments/stop_signal/images/square.png></img></div>","77,90","850","90","high","81","<div class = stopbox><div class = centered-shape id = stop-signal></div><div class = centered-shape id = stop-signal-inner></div></div>","300","stop","500","",""
"","-1","-1","500","0","fixation","poldrack-single-stim","300","517170","0.0-170.0","stop_signal","","test","<div class = centerbox><div class = fixation>+</div></div>","none","500","","","","","","","","",""
"","498","90","1850","0","stim","stop-signal","301","519024","0.0-171.0","stop_signal","","test","<div class = shapebox><img class = stim src = /static/experiments/stop_signal/images/square.png></img></div>","77,90","850","90","high","82","<div class = stopbox><div class = centered-shape id = stop-signal></div><div class = centered-shape id = stop-signal-inner></div></div>","250","go","500","",""
"","-1","-1","500","0","fixation","poldrack-single-stim","302","519531","0.0-172.0","stop_signal","","test","<div class = centerbox><div class = fixation>+</div></div>","none","500","","","","","","","","",""
"","465","90","1850","0","stim","stop-signal","303","521393","0.0-173.0","stop_signal","","test","<div class = shapebox><img class = stim src = /static/experiments/stop_signal/images/tear.png></img></div>","77,90","850","90","high","83","<div class = stopbox><div class = centered-shape id = stop-signal></div><div class = centered-shape id = stop-signal-inner></div></div>","250","go","500","",""
"","-1","-1","500","0","fixation","poldrack-single-stim","304","521895","0.0-174.0","stop_signal","","test","<div class = centerbox><div class = fixation>+</div></div>","none","500","","","","","","","","",""
"","525","77","1850","0","stim","stop-signal","305","523748","0.0-175.0","stop_signal","","test","<div class = shapebox><img class = stim src = /static/experiments/stop_signal/images/pentagon.png></img></div>","77,90","850","77","high","84","<div class = stopbox><div class = centered-shape id = stop-signal></div><div class = centered-shape id = stop-signal-inner></div></div>","250","go","500","",""
"","-1","-1","500","0","fixation","poldrack-single-stim","306","524250","0.0-176.0","stop_signal","","test","<div class = centerbox><div class = fixation>+</div></div>","none","500","","","","","","","","",""
"","410","77","1850","0","stim","stop-signal","307","526114","0.0-177.0","stop_signal","","test","<div class = shapebox><img class = stim src = /static/experiments/stop_signal/images/hourglass.png></img></div>","77,90","850","77","high","85","<div class = stopbox><div class = centered-shape id = stop-signal></div><div class = centered-shape id = stop-signal-inner></div></div>","250","stop","500","",""
"","-1","-1","500","0","fixation","poldrack-single-stim","308","526631","0.0-178.0","stop_signal","","test","<div class = centerbox><div class = fixation>+</div></div>","none","500","","","","","","","","",""
"","477","90","1850","0","stim","stop-signal","309","528485","0.0-179.0","stop_signal","","test","<div class = shapebox><img class = stim src = /static/experiments/stop_signal/images/square.png></img></div>","77,90","850","90","high","86","<div class = stopbox><div class = centered-shape id = stop-signal></div><div class = centered-shape id = stop-signal-inner></div></div>","200","go","500","",""
"","-1","-1","500","0","fixation","poldrack-single-stim","310","528999","0.0-180.0","stop_signal","","test","<div class = centerbox><div class = fixation>+</div></div>","none","500","","","","","","","","",""
"","532","90","1850","0","stim","stop-signal","311","530857","0.0-181.0","stop_signal","","test","<div class = shapebox><img class = stim src = /static/experiments/stop_signal/images/square.png></img></div>","77,90","850","90","high","87","<div class = stopbox><div class = centered-shape id = stop-signal></div><div class = centered-shape id = stop-signal-inner></div></div>","200","go","500","",""
"","-1","-1","500","0","fixation","poldrack-single-stim","312","531368","0.0-182.0","stop_signal","","test","<div class = centerbox><div class = fixation>+</div></div>","none","500","","","","","","","","",""
"","-1","-1","1850","0","stim","stop-signal","313","533223","0.0-183.0","stop_signal","","test","<div class = shapebox><img class = stim src = /static/experiments/stop_signal/images/pentagon.png></img></div>","77,90","850","77","high","88","<div class = stopbox><div class = centered-shape id = stop-signal></div><div class = centered-shape id = stop-signal-inner></div></div>","200","stop","500","",""
"","-1","-1","500","0","fixation","poldrack-single-stim","314","533736","0.0-184.0","stop_signal","","test","<div class = centerbox><div class = fixation>+</div></div>","none","500","","","","","","","","",""
"","668","90","1850","0","stim","stop-signal","315","535591","0.0-185.0","stop_signal","","test","<div class = shapebox><img class = stim src = /static/experiments/stop_signal/images/tear.png></img></div>","77,90","850","90","high","89","<div class = stopbox><div class = centered-shape id = stop-signal></div><div class = centered-shape id = stop-signal-inner></div></div>","250","stop","500","",""
"","-1","-1","500","0","fixation","poldrack-single-stim","316","536103","0.0-186.0","stop_signal","","test","<div class = centerbox><div class = fixation>+</div></div>","none","500","","","","","","","","",""
"","493","90","1850","0","stim","stop-signal","317","537956","0.0-187.0","stop_signal","","test","<div class = shapebox><img class = stim src = /static/experiments/stop_signal/images/tear.png></img></div>","77,90","850","90","high","90","<div class = stopbox><div class = centered-shape id = stop-signal></div><div class = centered-shape id = stop-signal-inner></div></div>","200","go","500","",""
"","-1","-1","500","0","fixation","poldrack-single-stim","318","538462","0.0-188.0","stop_signal","","test","<div class = centerbox><div class = fixation>+</div></div>","none","500","","","","","","","","",""
"","470","77","1850","0","stim","stop-signal","319","540325","0.0-189.0","stop_signal","","test","<div class = shapebox><img class = stim src = /static/experiments/stop_signal/images/hourglass.png></img></div>","77,90","850","77","high","91","<div class = stopbox><div class = centered-shape id = stop-signal></div><div class = centered-shape id = stop-signal-inner></div></div>","200","go","500","",""
"","-1","-1","500","0","fixation","poldrack-single-stim","320","540833","0.0-190.0","stop_signal","","test","<div class = centerbox><div class = fixation>+</div></div>","none","500","","","","","","","","",""
"","579","90","1850","0","stim","stop-signal","321","542694","0.0-191.0","stop_signal","","test","<div class = shapebox><img class = stim src = /static/experiments/stop_signal/images/square.png></img></div>","77,90","850","90","high","92","<div class = stopbox><div class = centered-shape id = stop-signal></div><div class = centered-shape id = stop-signal-inner></div></div>","200","go","500","",""
"","-1","-1","500","0","fixation","poldrack-single-stim","322","543196","0.0-192.0","stop_signal","","test","<div class = centerbox><div class = fixation>+</div></div>","none","500","","","","","","","","",""
"","488","90","1850","0","stim","stop-signal","323","545048","0.0-193.0","stop_signal","","test","<div class = shapebox><img class = stim src = /static/experiments/stop_signal/images/pentagon.png></img></div>","77,90","850","77","high","93","<div class = stopbox><div class = centered-shape id = stop-signal></div><div class = centered-shape id = stop-signal-inner></div></div>","200","go","500","",""
"","-1","-1","500","0","fixation","poldrack-single-stim","324","545561","0.0-194.0","stop_signal","","test","<div class = centerbox><div class = fixation>+</div></div>","none","500","","","","","","","","",""
"","-1","-1","1850","0","stim","stop-signal","325","547414","0.0-195.0","stop_signal","","test","<div class = shapebox><img class = stim src = /static/experiments/stop_signal/images/hourglass.png></img></div>","77,90","850","77","high","94","<div class = stopbox><div class = centered-shape id = stop-signal></div><div class = centered-shape id = stop-signal-inner></div></div>","200","stop","500","",""
